{
  "resourceType": "Bundle",
  "id": "6ce88f09-bd06-4169-bc0c-fdb74d3eeb2b",
  "type": "transaction",
  "entry": [
    {
      "resource": {
        "resourceType": "Patient",
        "id": "8aa31ec6-76d3-494a-a865-82dd9be7c2a7",
        "name": [
          {
            "use": "official",
            "family": "Nguyen",
            "given": [
              "Aisha"
            ]
          }
        ],
        "gender": "female",
        "birthDate": "1965-07-12",
        "address": [
          {
            "use": "home",
            "line": [
              "432 Willow Street"
            ],
            "city": "San Francisco",
            "state": "CA",
            "postalCode": "94107",
            "country": "USA"
          }
        ],
        "telecom": [
          {
            "system": "phone",
            "value": "(415) 555-1234",
            "use": "home"
          },
          {
            "system": "email",
            "value": "aisha.nguyen@example.com",
            "use": "home"
          }
        ],
        "extension": [
          {
            "url": "http://hl7.org/fhir/us/core/StructureDefinition/us-core-ethnicity",
            "valueString": "Asian"
          }
        ]
      },
      "request": {
        "method": "PUT",
        "url": "Patient/8aa31ec6-76d3-494a-a865-82dd9be7c2a7"
      }
    },
    {
      "resource": {
        "resourceType": "Practitioner",
        "id": "297a3fff-5324-45dd-861b-c8e0fc37ae6a",
        "name": [
          {
            "use": "official",
            "family": "Johnson",
            "given": [
              "Dr. Sarah"
            ],
            "prefix": [
              "Dr."
            ]
          }
        ],
        "qualification": [
          {
            "code": {
              "coding": [
                {
                  "system": "http://terminology.hl7.org/CodeSystem/v2-0360",
                  "code": "MD",
                  "display": "Doctor of Medicine"
                }
              ]
            }
          }
        ]
      },
      "request": {
        "method": "PUT",
        "url": "Practitioner/297a3fff-5324-45dd-861b-c8e0fc37ae6a"
      }
    },
    {
      "resource": {
        "resourceType": "Organization",
        "id": "a806e326-2868-4fb4-9817-dc7c400af0b5",
        "name": "Comprehensive Cancer Center",
        "type": [
          {
            "coding": [
              {
                "system": "http://terminology.hl7.org/CodeSystem/organization-type",
                "code": "prov",
                "display": "Healthcare Provider"
              }
            ]
          }
        ]
      },
      "request": {
        "method": "PUT",
        "url": "Organization/a806e326-2868-4fb4-9817-dc7c400af0b5"
      }
    },
    {
      "resource": {
        "resourceType": "Condition",
        "id": "e64cf75e-a85a-43af-88af-881e7e871e07",
        "clinicalStatus": {
          "coding": [
            {
              "system": "http://terminology.hl7.org/CodeSystem/condition-clinical",
              "code": "active",
              "display": "Active"
            }
          ]
        },
        "verificationStatus": {
          "coding": [
            {
              "system": "http://terminology.hl7.org/CodeSystem/condition-ver-status",
              "code": "confirmed",
              "display": "Confirmed"
            }
          ]
        },
        "code": {
          "coding": [
            {
              "system": "http://snomed.info/sct",
              "code": "372142002",
              "display": "pancreatic adenocarcinoma"
            }
          ],
          "text": "pancreatic adenocarcinoma"
        },
        "subject": {
          "reference": "Patient/8aa31ec6-76d3-494a-a865-82dd9be7c2a7",
          "display": "Aisha Nguyen"
        },
        "onsetDateTime": "2019-02-15",
        "recordedDate": "2019-03-02",
        "stage": [
          {
            "summary": {
              "coding": [
                {
                  "system": "http://snomed.info/sct",
                  "code": "261663004",
                  "display": "Stage III"
                }
              ]
            }
          }
        ]
      },
      "request": {
        "method": "PUT",
        "url": "Condition/e64cf75e-a85a-43af-88af-881e7e871e07"
      }
    },
    {
      "resource": {
        "resourceType": "CarePlan",
        "id": "3652c904-4a4d-47ef-b525-13e474343052",
        "status": "active",
        "intent": "plan",
        "title": "Treatment plan for pancreatic adenocarcinoma",
        "description": "Comprehensive treatment plan including Surgery, Chemotherapy, Radiotherapy",
        "subject": {
          "reference": "Patient/8aa31ec6-76d3-494a-a865-82dd9be7c2a7",
          "display": "Aisha Nguyen"
        },
        "period": {
          "start": "2019-03-10"
        },
        "addresses": [
          {
            "reference": "Condition/e64cf75e-a85a-43af-88af-881e7e871e07",
            "display": "pancreatic adenocarcinoma"
          }
        ],
        "author": [
          {
            "reference": "Practitioner/297a3fff-5324-45dd-861b-c8e0fc37ae6a",
            "display": "Dr. Sarah Johnson"
          }
        ]
      },
      "request": {
        "method": "PUT",
        "url": "CarePlan/3652c904-4a4d-47ef-b525-13e474343052"
      }
    },
    {
      "resource": {
        "resourceType": "Encounter",
        "id": "6fc3a5ca-97ec-4650-88cf-90c23a02d5a1",
        "status": "finished",
        "class": {
          "system": "http://terminology.hl7.org/CodeSystem/v3-ActCode",
          "code": "IMP",
          "display": "Inpatient"
        },
        "type": [
          {
            "coding": [
              {
                "system": "http://snomed.info/sct",
                "code": "308646001",
                "display": "Pancreatectomy"
              }
            ],
            "text": "Pancreatectomy"
          }
        ],
        "subject": {
          "reference": "Patient/8aa31ec6-76d3-494a-a865-82dd9be7c2a7",
          "display": "Aisha Nguyen"
        },
        "participant": [
          {
            "individual": {
              "reference": "Practitioner/297a3fff-5324-45dd-861b-c8e0fc37ae6a",
              "display": "Dr. Sarah Johnson"
            }
          }
        ],
        "period": {
          "start": "2019-03-10"
        },
        "serviceProvider": {
          "reference": "Organization/a806e326-2868-4fb4-9817-dc7c400af0b5",
          "display": "Comprehensive Cancer Center"
        },
        "reasonReference": [
          {
            "reference": "Condition/e64cf75e-a85a-43af-88af-881e7e871e07",
            "display": "pancreatic adenocarcinoma"
          }
        ]
      },
      "request": {
        "method": "PUT",
        "url": "Encounter/6fc3a5ca-97ec-4650-88cf-90c23a02d5a1"
      }
    },
    {
      "resource": {
        "resourceType": "Procedure",
        "id": "a380f76a-be0a-46b3-b1f8-b0c834d8a889",
        "status": "completed",
        "code": {
          "coding": [
            {
              "system": "http://snomed.info/sct",
              "code": "387713003",
              "display": "Pancreatectomy"
            }
          ],
          "text": "Pancreatectomy"
        },
        "subject": {
          "reference": "Patient/8aa31ec6-76d3-494a-a865-82dd9be7c2a7",
          "display": "Aisha Nguyen"
        },
        "encounter": {
          "reference": "Encounter/6fc3a5ca-97ec-4650-88cf-90c23a02d5a1"
        },
        "performedDateTime": "2019-03-10",
        "performer": [
          {
            "actor": {
              "reference": "Practitioner/297a3fff-5324-45dd-861b-c8e0fc37ae6a",
              "display": "Dr. Sarah Johnson"
            }
          }
        ],
        "reasonReference": [
          {
            "reference": "Condition/e64cf75e-a85a-43af-88af-881e7e871e07",
            "display": "pancreatic adenocarcinoma"
          }
        ]
      },
      "request": {
        "method": "PUT",
        "url": "Procedure/a380f76a-be0a-46b3-b1f8-b0c834d8a889"
      }
    },
    {
      "resource": {
        "resourceType": "MedicationAdministration",
        "id": "873c7299-7538-4c54-9f40-ac53bb541297",
        "status": "completed",
        "medicationCodeableConcept": {
          "coding": [
            {
              "system": "http://www.nlm.nih.gov/research/umls/rxnorm",
              "code": "123456",
              "display": "Morphine"
            }
          ],
          "text": "Morphine"
        },
        "subject": {
          "reference": "Patient/8aa31ec6-76d3-494a-a865-82dd9be7c2a7",
          "display": "Aisha Nguyen"
        },
        "context": {
          "reference": "Encounter/6fc3a5ca-97ec-4650-88cf-90c23a02d5a1"
        },
        "effectiveDateTime": "2019-03-10",
        "performer": [
          {
            "actor": {
              "reference": "Practitioner/297a3fff-5324-45dd-861b-c8e0fc37ae6a",
              "display": "Dr. Sarah Johnson"
            }
          }
        ],
        "reasonReference": [
          {
            "reference": "Condition/e64cf75e-a85a-43af-88af-881e7e871e07",
            "display": "pancreatic adenocarcinoma"
          }
        ],
        "dosage": {
          "text": "As prescribed per protocol",
          "route": {
            "coding": [
              {
                "system": "http://snomed.info/sct",
                "code": "47625008",
                "display": "Intravenous route"
              }
            ]
          },
          "dose": {
            "value": 1,
            "unit": "dose",
            "system": "http://unitsofmeasure.org",
            "code": "1"
          }
        }
      },
      "request": {
        "method": "PUT",
        "url": "MedicationAdministration/873c7299-7538-4c54-9f40-ac53bb541297"
      }
    },
    {
      "resource": {
        "resourceType": "MedicationAdministration",
        "id": "462a18a0-2597-4fcf-9e56-5fafde607166",
        "status": "completed",
        "medicationCodeableConcept": {
          "coding": [
            {
              "system": "http://www.nlm.nih.gov/research/umls/rxnorm",
              "code": "123456",
              "display": "Antibiotics"
            }
          ],
          "text": "Antibiotics"
        },
        "subject": {
          "reference": "Patient/8aa31ec6-76d3-494a-a865-82dd9be7c2a7",
          "display": "Aisha Nguyen"
        },
        "context": {
          "reference": "Encounter/6fc3a5ca-97ec-4650-88cf-90c23a02d5a1"
        },
        "effectiveDateTime": "2019-03-10",
        "performer": [
          {
            "actor": {
              "reference": "Practitioner/297a3fff-5324-45dd-861b-c8e0fc37ae6a",
              "display": "Dr. Sarah Johnson"
            }
          }
        ],
        "reasonReference": [
          {
            "reference": "Condition/e64cf75e-a85a-43af-88af-881e7e871e07",
            "display": "pancreatic adenocarcinoma"
          }
        ],
        "dosage": {
          "text": "As prescribed per protocol",
          "route": {
            "coding": [
              {
                "system": "http://snomed.info/sct",
                "code": "47625008",
                "display": "Intravenous route"
              }
            ]
          },
          "dose": {
            "value": 1,
            "unit": "dose",
            "system": "http://unitsofmeasure.org",
            "code": "1"
          }
        }
      },
      "request": {
        "method": "PUT",
        "url": "MedicationAdministration/462a18a0-2597-4fcf-9e56-5fafde607166"
      }
    },
    {
      "resource": {
        "resourceType": "Encounter",
        "id": "332252fa-7b40-4c21-a5b9-a45f98387f84",
        "status": "finished",
        "class": {
          "system": "http://terminology.hl7.org/CodeSystem/v3-ActCode",
          "code": "IMP",
          "display": "Inpatient"
        },
        "type": [
          {
            "coding": [
              {
                "system": "http://snomed.info/sct",
                "code": "308646001",
                "display": "Post-operative care"
              }
            ],
            "text": "Post-operative care"
          }
        ],
        "subject": {
          "reference": "Patient/8aa31ec6-76d3-494a-a865-82dd9be7c2a7",
          "display": "Aisha Nguyen"
        },
        "participant": [
          {
            "individual": {
              "reference": "Practitioner/297a3fff-5324-45dd-861b-c8e0fc37ae6a",
              "display": "Dr. Sarah Johnson"
            }
          }
        ],
        "period": {
          "start": "2019-03-16"
        },
        "serviceProvider": {
          "reference": "Organization/a806e326-2868-4fb4-9817-dc7c400af0b5",
          "display": "Comprehensive Cancer Center"
        },
        "reasonReference": [
          {
            "reference": "Condition/e64cf75e-a85a-43af-88af-881e7e871e07",
            "display": "pancreatic adenocarcinoma"
          }
        ]
      },
      "request": {
        "method": "PUT",
        "url": "Encounter/332252fa-7b40-4c21-a5b9-a45f98387f84"
      }
    },
    {
      "resource": {
        "resourceType": "Procedure",
        "id": "7c9f3867-6ca5-4c20-8ba4-152ab3dd8053",
        "status": "completed",
        "code": {
          "coding": [
            {
              "system": "http://snomed.info/sct",
              "code": "387713003",
              "display": "Wound care"
            }
          ],
          "text": "Wound care"
        },
        "subject": {
          "reference": "Patient/8aa31ec6-76d3-494a-a865-82dd9be7c2a7",
          "display": "Aisha Nguyen"
        },
        "encounter": {
          "reference": "Encounter/332252fa-7b40-4c21-a5b9-a45f98387f84"
        },
        "performedDateTime": "2019-03-16",
        "performer": [
          {
            "actor": {
              "reference": "Practitioner/297a3fff-5324-45dd-861b-c8e0fc37ae6a",
              "display": "Dr. Sarah Johnson"
            }
          }
        ],
        "reasonReference": [
          {
            "reference": "Condition/e64cf75e-a85a-43af-88af-881e7e871e07",
            "display": "pancreatic adenocarcinoma"
          }
        ]
      },
      "request": {
        "method": "PUT",
        "url": "Procedure/7c9f3867-6ca5-4c20-8ba4-152ab3dd8053"
      }
    },
    {
      "resource": {
        "resourceType": "MedicationAdministration",
        "id": "a03bcc69-4a79-4002-bc51-e3d2739d24cc",
        "status": "completed",
        "medicationCodeableConcept": {
          "coding": [
            {
              "system": "http://www.nlm.nih.gov/research/umls/rxnorm",
              "code": "123456",
              "display": "Painkillers"
            }
          ],
          "text": "Painkillers"
        },
        "subject": {
          "reference": "Patient/8aa31ec6-76d3-494a-a865-82dd9be7c2a7",
          "display": "Aisha Nguyen"
        },
        "context": {
          "reference": "Encounter/332252fa-7b40-4c21-a5b9-a45f98387f84"
        },
        "effectiveDateTime": "2019-03-16",
        "performer": [
          {
            "actor": {
              "reference": "Practitioner/297a3fff-5324-45dd-861b-c8e0fc37ae6a",
              "display": "Dr. Sarah Johnson"
            }
          }
        ],
        "reasonReference": [
          {
            "reference": "Condition/e64cf75e-a85a-43af-88af-881e7e871e07",
            "display": "pancreatic adenocarcinoma"
          }
        ],
        "dosage": {
          "text": "As prescribed per protocol",
          "route": {
            "coding": [
              {
                "system": "http://snomed.info/sct",
                "code": "47625008",
                "display": "Intravenous route"
              }
            ]
          },
          "dose": {
            "value": 1,
            "unit": "dose",
            "system": "http://unitsofmeasure.org",
            "code": "1"
          }
        }
      },
      "request": {
        "method": "PUT",
        "url": "MedicationAdministration/a03bcc69-4a79-4002-bc51-e3d2739d24cc"
      }
    },
    {
      "resource": {
        "resourceType": "MedicationAdministration",
        "id": "096aa832-72ba-49b0-a94e-62623bd3409a",
        "status": "completed",
        "medicationCodeableConcept": {
          "coding": [
            {
              "system": "http://www.nlm.nih.gov/research/umls/rxnorm",
              "code": "123456",
              "display": "Anticoagulants"
            }
          ],
          "text": "Anticoagulants"
        },
        "subject": {
          "reference": "Patient/8aa31ec6-76d3-494a-a865-82dd9be7c2a7",
          "display": "Aisha Nguyen"
        },
        "context": {
          "reference": "Encounter/332252fa-7b40-4c21-a5b9-a45f98387f84"
        },
        "effectiveDateTime": "2019-03-16",
        "performer": [
          {
            "actor": {
              "reference": "Practitioner/297a3fff-5324-45dd-861b-c8e0fc37ae6a",
              "display": "Dr. Sarah Johnson"
            }
          }
        ],
        "reasonReference": [
          {
            "reference": "Condition/e64cf75e-a85a-43af-88af-881e7e871e07",
            "display": "pancreatic adenocarcinoma"
          }
        ],
        "dosage": {
          "text": "As prescribed per protocol",
          "route": {
            "coding": [
              {
                "system": "http://snomed.info/sct",
                "code": "47625008",
                "display": "Intravenous route"
              }
            ]
          },
          "dose": {
            "value": 1,
            "unit": "dose",
            "system": "http://unitsofmeasure.org",
            "code": "1"
          }
        }
      },
      "request": {
        "method": "PUT",
        "url": "MedicationAdministration/096aa832-72ba-49b0-a94e-62623bd3409a"
      }
    },
    {
      "resource": {
        "resourceType": "Encounter",
        "id": "dc51b763-4cdc-451f-a4fa-3f83b22eb9dc",
        "status": "finished",
        "class": {
          "system": "http://terminology.hl7.org/CodeSystem/v3-ActCode",
          "code": "AMB",
          "display": "Ambulatory"
        },
        "type": [
          {
            "coding": [
              {
                "system": "http://snomed.info/sct",
                "code": "308646001",
                "display": "Follow-up"
              }
            ],
            "text": "Follow-up"
          }
        ],
        "subject": {
          "reference": "Patient/8aa31ec6-76d3-494a-a865-82dd9be7c2a7",
          "display": "Aisha Nguyen"
        },
        "participant": [
          {
            "individual": {
              "reference": "Practitioner/297a3fff-5324-45dd-861b-c8e0fc37ae6a",
              "display": "Dr. Sarah Johnson"
            }
          }
        ],
        "period": {
          "start": "2019-03-20"
        },
        "serviceProvider": {
          "reference": "Organization/a806e326-2868-4fb4-9817-dc7c400af0b5",
          "display": "Comprehensive Cancer Center"
        },
        "reasonReference": [
          {
            "reference": "Condition/e64cf75e-a85a-43af-88af-881e7e871e07",
            "display": "pancreatic adenocarcinoma"
          }
        ]
      },
      "request": {
        "method": "PUT",
        "url": "Encounter/dc51b763-4cdc-451f-a4fa-3f83b22eb9dc"
      }
    },
    {
      "resource": {
        "resourceType": "Procedure",
        "id": "cab76a55-9d40-4fa9-8cc4-67ea0db238ce",
        "status": "completed",
        "code": {
          "coding": [
            {
              "system": "http://snomed.info/sct",
              "code": "387713003",
              "display": "Incision check"
            }
          ],
          "text": "Incision check"
        },
        "subject": {
          "reference": "Patient/8aa31ec6-76d3-494a-a865-82dd9be7c2a7",
          "display": "Aisha Nguyen"
        },
        "encounter": {
          "reference": "Encounter/dc51b763-4cdc-451f-a4fa-3f83b22eb9dc"
        },
        "performedDateTime": "2019-03-20",
        "performer": [
          {
            "actor": {
              "reference": "Practitioner/297a3fff-5324-45dd-861b-c8e0fc37ae6a",
              "display": "Dr. Sarah Johnson"
            }
          }
        ],
        "reasonReference": [
          {
            "reference": "Condition/e64cf75e-a85a-43af-88af-881e7e871e07",
            "display": "pancreatic adenocarcinoma"
          }
        ]
      },
      "request": {
        "method": "PUT",
        "url": "Procedure/cab76a55-9d40-4fa9-8cc4-67ea0db238ce"
      }
    },
    {
      "resource": {
        "resourceType": "MedicationAdministration",
        "id": "e3c6b917-d8b3-49a1-9d58-c227dd42b591",
        "status": "completed",
        "medicationCodeableConcept": {
          "coding": [
            {
              "system": "http://www.nlm.nih.gov/research/umls/rxnorm",
              "code": "123456",
              "display": "Antibiotics"
            }
          ],
          "text": "Antibiotics"
        },
        "subject": {
          "reference": "Patient/8aa31ec6-76d3-494a-a865-82dd9be7c2a7",
          "display": "Aisha Nguyen"
        },
        "context": {
          "reference": "Encounter/dc51b763-4cdc-451f-a4fa-3f83b22eb9dc"
        },
        "effectiveDateTime": "2019-03-20",
        "performer": [
          {
            "actor": {
              "reference": "Practitioner/297a3fff-5324-45dd-861b-c8e0fc37ae6a",
              "display": "Dr. Sarah Johnson"
            }
          }
        ],
        "reasonReference": [
          {
            "reference": "Condition/e64cf75e-a85a-43af-88af-881e7e871e07",
            "display": "pancreatic adenocarcinoma"
          }
        ],
        "dosage": {
          "text": "As prescribed per protocol",
          "route": {
            "coding": [
              {
                "system": "http://snomed.info/sct",
                "code": "47625008",
                "display": "Intravenous route"
              }
            ]
          },
          "dose": {
            "value": 1,
            "unit": "dose",
            "system": "http://unitsofmeasure.org",
            "code": "1"
          }
        }
      },
      "request": {
        "method": "PUT",
        "url": "MedicationAdministration/e3c6b917-d8b3-49a1-9d58-c227dd42b591"
      }
    },
    {
      "resource": {
        "resourceType": "Encounter",
        "id": "0b0e0354-18a6-4475-89cc-0a3a049445e4",
        "status": "finished",
        "class": {
          "system": "http://terminology.hl7.org/CodeSystem/v3-ActCode",
          "code": "AMB",
          "display": "Ambulatory"
        },
        "type": [
          {
            "coding": [
              {
                "system": "http://snomed.info/sct",
                "code": "308646001",
                "display": "Chemotherapy Cycle 1"
              }
            ],
            "text": "Chemotherapy Cycle 1"
          }
        ],
        "subject": {
          "reference": "Patient/8aa31ec6-76d3-494a-a865-82dd9be7c2a7",
          "display": "Aisha Nguyen"
        },
        "participant": [
          {
            "individual": {
              "reference": "Practitioner/297a3fff-5324-45dd-861b-c8e0fc37ae6a",
              "display": "Dr. Sarah Johnson"
            }
          }
        ],
        "period": {
          "start": "2019-04-01"
        },
        "serviceProvider": {
          "reference": "Organization/a806e326-2868-4fb4-9817-dc7c400af0b5",
          "display": "Comprehensive Cancer Center"
        },
        "reasonReference": [
          {
            "reference": "Condition/e64cf75e-a85a-43af-88af-881e7e871e07",
            "display": "pancreatic adenocarcinoma"
          }
        ]
      },
      "request": {
        "method": "PUT",
        "url": "Encounter/0b0e0354-18a6-4475-89cc-0a3a049445e4"
      }
    },
    {
      "resource": {
        "resourceType": "Procedure",
        "id": "32cbf86b-fe99-46c2-815a-c4cc208c6e81",
        "status": "completed",
        "code": {
          "coding": [
            {
              "system": "http://snomed.info/sct",
              "code": "387713003",
              "display": "IV Chemotherapy"
            }
          ],
          "text": "IV Chemotherapy"
        },
        "subject": {
          "reference": "Patient/8aa31ec6-76d3-494a-a865-82dd9be7c2a7",
          "display": "Aisha Nguyen"
        },
        "encounter": {
          "reference": "Encounter/0b0e0354-18a6-4475-89cc-0a3a049445e4"
        },
        "performedDateTime": "2019-04-01",
        "performer": [
          {
            "actor": {
              "reference": "Practitioner/297a3fff-5324-45dd-861b-c8e0fc37ae6a",
              "display": "Dr. Sarah Johnson"
            }
          }
        ],
        "reasonReference": [
          {
            "reference": "Condition/e64cf75e-a85a-43af-88af-881e7e871e07",
            "display": "pancreatic adenocarcinoma"
          }
        ]
      },
      "request": {
        "method": "PUT",
        "url": "Procedure/32cbf86b-fe99-46c2-815a-c4cc208c6e81"
      }
    },
    {
      "resource": {
        "resourceType": "MedicationAdministration",
        "id": "bf11c698-1caa-424d-a205-b82db468961a",
        "status": "completed",
        "medicationCodeableConcept": {
          "coding": [
            {
              "system": "http://www.nlm.nih.gov/research/umls/rxnorm",
              "code": "123456",
              "display": "Oxaliplatin"
            }
          ],
          "text": "Oxaliplatin"
        },
        "subject": {
          "reference": "Patient/8aa31ec6-76d3-494a-a865-82dd9be7c2a7",
          "display": "Aisha Nguyen"
        },
        "context": {
          "reference": "Encounter/0b0e0354-18a6-4475-89cc-0a3a049445e4"
        },
        "effectiveDateTime": "2019-04-01",
        "performer": [
          {
            "actor": {
              "reference": "Practitioner/297a3fff-5324-45dd-861b-c8e0fc37ae6a",
              "display": "Dr. Sarah Johnson"
            }
          }
        ],
        "reasonReference": [
          {
            "reference": "Condition/e64cf75e-a85a-43af-88af-881e7e871e07",
            "display": "pancreatic adenocarcinoma"
          }
        ],
        "dosage": {
          "text": "As prescribed per protocol",
          "route": {
            "coding": [
              {
                "system": "http://snomed.info/sct",
                "code": "47625008",
                "display": "Intravenous route"
              }
            ]
          },
          "dose": {
            "value": 1,
            "unit": "dose",
            "system": "http://unitsofmeasure.org",
            "code": "1"
          }
        }
      },
      "request": {
        "method": "PUT",
        "url": "MedicationAdministration/bf11c698-1caa-424d-a205-b82db468961a"
      }
    },
    {
      "resource": {
        "resourceType": "MedicationAdministration",
        "id": "ba8c4a83-0133-4ff6-9811-2c46af955ad2",
        "status": "completed",
        "medicationCodeableConcept": {
          "coding": [
            {
              "system": "http://www.nlm.nih.gov/research/umls/rxnorm",
              "code": "123456",
              "display": "Fluorouracil"
            }
          ],
          "text": "Fluorouracil"
        },
        "subject": {
          "reference": "Patient/8aa31ec6-76d3-494a-a865-82dd9be7c2a7",
          "display": "Aisha Nguyen"
        },
        "context": {
          "reference": "Encounter/0b0e0354-18a6-4475-89cc-0a3a049445e4"
        },
        "effectiveDateTime": "2019-04-01",
        "performer": [
          {
            "actor": {
              "reference": "Practitioner/297a3fff-5324-45dd-861b-c8e0fc37ae6a",
              "display": "Dr. Sarah Johnson"
            }
          }
        ],
        "reasonReference": [
          {
            "reference": "Condition/e64cf75e-a85a-43af-88af-881e7e871e07",
            "display": "pancreatic adenocarcinoma"
          }
        ],
        "dosage": {
          "text": "As prescribed per protocol",
          "route": {
            "coding": [
              {
                "system": "http://snomed.info/sct",
                "code": "47625008",
                "display": "Intravenous route"
              }
            ]
          },
          "dose": {
            "value": 1,
            "unit": "dose",
            "system": "http://unitsofmeasure.org",
            "code": "1"
          }
        }
      },
      "request": {
        "method": "PUT",
        "url": "MedicationAdministration/ba8c4a83-0133-4ff6-9811-2c46af955ad2"
      }
    },
    {
      "resource": {
        "resourceType": "Encounter",
        "id": "dd872e6c-5c4d-4eb1-ab8c-c988d8b0242b",
        "status": "finished",
        "class": {
          "system": "http://terminology.hl7.org/CodeSystem/v3-ActCode",
          "code": "AMB",
          "display": "Ambulatory"
        },
        "type": [
          {
            "coding": [
              {
                "system": "http://snomed.info/sct",
                "code": "308646001",
                "display": "Chemotherapy Cycle 2"
              }
            ],
            "text": "Chemotherapy Cycle 2"
          }
        ],
        "subject": {
          "reference": "Patient/8aa31ec6-76d3-494a-a865-82dd9be7c2a7",
          "display": "Aisha Nguyen"
        },
        "participant": [
          {
            "individual": {
              "reference": "Practitioner/297a3fff-5324-45dd-861b-c8e0fc37ae6a",
              "display": "Dr. Sarah Johnson"
            }
          }
        ],
        "period": {
          "start": "2019-04-22"
        },
        "serviceProvider": {
          "reference": "Organization/a806e326-2868-4fb4-9817-dc7c400af0b5",
          "display": "Comprehensive Cancer Center"
        },
        "reasonReference": [
          {
            "reference": "Condition/e64cf75e-a85a-43af-88af-881e7e871e07",
            "display": "pancreatic adenocarcinoma"
          }
        ]
      },
      "request": {
        "method": "PUT",
        "url": "Encounter/dd872e6c-5c4d-4eb1-ab8c-c988d8b0242b"
      }
    },
    {
      "resource": {
        "resourceType": "Procedure",
        "id": "aa1eecd2-1c3f-432a-87ca-8335620ccaf5",
        "status": "completed",
        "code": {
          "coding": [
            {
              "system": "http://snomed.info/sct",
              "code": "387713003",
              "display": "IV Chemotherapy"
            }
          ],
          "text": "IV Chemotherapy"
        },
        "subject": {
          "reference": "Patient/8aa31ec6-76d3-494a-a865-82dd9be7c2a7",
          "display": "Aisha Nguyen"
        },
        "encounter": {
          "reference": "Encounter/dd872e6c-5c4d-4eb1-ab8c-c988d8b0242b"
        },
        "performedDateTime": "2019-04-22",
        "performer": [
          {
            "actor": {
              "reference": "Practitioner/297a3fff-5324-45dd-861b-c8e0fc37ae6a",
              "display": "Dr. Sarah Johnson"
            }
          }
        ],
        "reasonReference": [
          {
            "reference": "Condition/e64cf75e-a85a-43af-88af-881e7e871e07",
            "display": "pancreatic adenocarcinoma"
          }
        ]
      },
      "request": {
        "method": "PUT",
        "url": "Procedure/aa1eecd2-1c3f-432a-87ca-8335620ccaf5"
      }
    },
    {
      "resource": {
        "resourceType": "MedicationAdministration",
        "id": "4fb2f85d-adc6-469f-8e8f-175d33d102a6",
        "status": "completed",
        "medicationCodeableConcept": {
          "coding": [
            {
              "system": "http://www.nlm.nih.gov/research/umls/rxnorm",
              "code": "123456",
              "display": "Oxaliplatin"
            }
          ],
          "text": "Oxaliplatin"
        },
        "subject": {
          "reference": "Patient/8aa31ec6-76d3-494a-a865-82dd9be7c2a7",
          "display": "Aisha Nguyen"
        },
        "context": {
          "reference": "Encounter/dd872e6c-5c4d-4eb1-ab8c-c988d8b0242b"
        },
        "effectiveDateTime": "2019-04-22",
        "performer": [
          {
            "actor": {
              "reference": "Practitioner/297a3fff-5324-45dd-861b-c8e0fc37ae6a",
              "display": "Dr. Sarah Johnson"
            }
          }
        ],
        "reasonReference": [
          {
            "reference": "Condition/e64cf75e-a85a-43af-88af-881e7e871e07",
            "display": "pancreatic adenocarcinoma"
          }
        ],
        "dosage": {
          "text": "As prescribed per protocol",
          "route": {
            "coding": [
              {
                "system": "http://snomed.info/sct",
                "code": "47625008",
                "display": "Intravenous route"
              }
            ]
          },
          "dose": {
            "value": 1,
            "unit": "dose",
            "system": "http://unitsofmeasure.org",
            "code": "1"
          }
        }
      },
      "request": {
        "method": "PUT",
        "url": "MedicationAdministration/4fb2f85d-adc6-469f-8e8f-175d33d102a6"
      }
    },
    {
      "resource": {
        "resourceType": "MedicationAdministration",
        "id": "94d50234-043c-4a57-8128-cdbda10f96b4",
        "status": "completed",
        "medicationCodeableConcept": {
          "coding": [
            {
              "system": "http://www.nlm.nih.gov/research/umls/rxnorm",
              "code": "123456",
              "display": "Fluorouracil"
            }
          ],
          "text": "Fluorouracil"
        },
        "subject": {
          "reference": "Patient/8aa31ec6-76d3-494a-a865-82dd9be7c2a7",
          "display": "Aisha Nguyen"
        },
        "context": {
          "reference": "Encounter/dd872e6c-5c4d-4eb1-ab8c-c988d8b0242b"
        },
        "effectiveDateTime": "2019-04-22",
        "performer": [
          {
            "actor": {
              "reference": "Practitioner/297a3fff-5324-45dd-861b-c8e0fc37ae6a",
              "display": "Dr. Sarah Johnson"
            }
          }
        ],
        "reasonReference": [
          {
            "reference": "Condition/e64cf75e-a85a-43af-88af-881e7e871e07",
            "display": "pancreatic adenocarcinoma"
          }
        ],
        "dosage": {
          "text": "As prescribed per protocol",
          "route": {
            "coding": [
              {
                "system": "http://snomed.info/sct",
                "code": "47625008",
                "display": "Intravenous route"
              }
            ]
          },
          "dose": {
            "value": 1,
            "unit": "dose",
            "system": "http://unitsofmeasure.org",
            "code": "1"
          }
        }
      },
      "request": {
        "method": "PUT",
        "url": "MedicationAdministration/94d50234-043c-4a57-8128-cdbda10f96b4"
      }
    },
    {
      "resource": {
        "resourceType": "Encounter",
        "id": "ee5beaca-a5cf-4c46-9a99-114b06e2e4c4",
        "status": "finished",
        "class": {
          "system": "http://terminology.hl7.org/CodeSystem/v3-ActCode",
          "code": "AMB",
          "display": "Ambulatory"
        },
        "type": [
          {
            "coding": [
              {
                "system": "http://snomed.info/sct",
                "code": "308646001",
                "display": "Chemotherapy Cycle 3"
              }
            ],
            "text": "Chemotherapy Cycle 3"
          }
        ],
        "subject": {
          "reference": "Patient/8aa31ec6-76d3-494a-a865-82dd9be7c2a7",
          "display": "Aisha Nguyen"
        },
        "participant": [
          {
            "individual": {
              "reference": "Practitioner/297a3fff-5324-45dd-861b-c8e0fc37ae6a",
              "display": "Dr. Sarah Johnson"
            }
          }
        ],
        "period": {
          "start": "2019-05-13"
        },
        "serviceProvider": {
          "reference": "Organization/a806e326-2868-4fb4-9817-dc7c400af0b5",
          "display": "Comprehensive Cancer Center"
        },
        "reasonReference": [
          {
            "reference": "Condition/e64cf75e-a85a-43af-88af-881e7e871e07",
            "display": "pancreatic adenocarcinoma"
          }
        ]
      },
      "request": {
        "method": "PUT",
        "url": "Encounter/ee5beaca-a5cf-4c46-9a99-114b06e2e4c4"
      }
    },
    {
      "resource": {
        "resourceType": "Procedure",
        "id": "42906f0a-951d-426f-b88d-1f883e9378fc",
        "status": "completed",
        "code": {
          "coding": [
            {
              "system": "http://snomed.info/sct",
              "code": "387713003",
              "display": "IV Chemotherapy"
            }
          ],
          "text": "IV Chemotherapy"
        },
        "subject": {
          "reference": "Patient/8aa31ec6-76d3-494a-a865-82dd9be7c2a7",
          "display": "Aisha Nguyen"
        },
        "encounter": {
          "reference": "Encounter/ee5beaca-a5cf-4c46-9a99-114b06e2e4c4"
        },
        "performedDateTime": "2019-05-13",
        "performer": [
          {
            "actor": {
              "reference": "Practitioner/297a3fff-5324-45dd-861b-c8e0fc37ae6a",
              "display": "Dr. Sarah Johnson"
            }
          }
        ],
        "reasonReference": [
          {
            "reference": "Condition/e64cf75e-a85a-43af-88af-881e7e871e07",
            "display": "pancreatic adenocarcinoma"
          }
        ]
      },
      "request": {
        "method": "PUT",
        "url": "Procedure/42906f0a-951d-426f-b88d-1f883e9378fc"
      }
    },
    {
      "resource": {
        "resourceType": "MedicationAdministration",
        "id": "bb9cfde7-e5f5-414d-9a84-0be99b3026c4",
        "status": "completed",
        "medicationCodeableConcept": {
          "coding": [
            {
              "system": "http://www.nlm.nih.gov/research/umls/rxnorm",
              "code": "123456",
              "display": "Oxaliplatin"
            }
          ],
          "text": "Oxaliplatin"
        },
        "subject": {
          "reference": "Patient/8aa31ec6-76d3-494a-a865-82dd9be7c2a7",
          "display": "Aisha Nguyen"
        },
        "context": {
          "reference": "Encounter/ee5beaca-a5cf-4c46-9a99-114b06e2e4c4"
        },
        "effectiveDateTime": "2019-05-13",
        "performer": [
          {
            "actor": {
              "reference": "Practitioner/297a3fff-5324-45dd-861b-c8e0fc37ae6a",
              "display": "Dr. Sarah Johnson"
            }
          }
        ],
        "reasonReference": [
          {
            "reference": "Condition/e64cf75e-a85a-43af-88af-881e7e871e07",
            "display": "pancreatic adenocarcinoma"
          }
        ],
        "dosage": {
          "text": "As prescribed per protocol",
          "route": {
            "coding": [
              {
                "system": "http://snomed.info/sct",
                "code": "47625008",
                "display": "Intravenous route"
              }
            ]
          },
          "dose": {
            "value": 1,
            "unit": "dose",
            "system": "http://unitsofmeasure.org",
            "code": "1"
          }
        }
      },
      "request": {
        "method": "PUT",
        "url": "MedicationAdministration/bb9cfde7-e5f5-414d-9a84-0be99b3026c4"
      }
    },
    {
      "resource": {
        "resourceType": "MedicationAdministration",
        "id": "65c8c6aa-a94e-48d8-b9ab-228ae0f48857",
        "status": "completed",
        "medicationCodeableConcept": {
          "coding": [
            {
              "system": "http://www.nlm.nih.gov/research/umls/rxnorm",
              "code": "123456",
              "display": "Fluorouracil"
            }
          ],
          "text": "Fluorouracil"
        },
        "subject": {
          "reference": "Patient/8aa31ec6-76d3-494a-a865-82dd9be7c2a7",
          "display": "Aisha Nguyen"
        },
        "context": {
          "reference": "Encounter/ee5beaca-a5cf-4c46-9a99-114b06e2e4c4"
        },
        "effectiveDateTime": "2019-05-13",
        "performer": [
          {
            "actor": {
              "reference": "Practitioner/297a3fff-5324-45dd-861b-c8e0fc37ae6a",
              "display": "Dr. Sarah Johnson"
            }
          }
        ],
        "reasonReference": [
          {
            "reference": "Condition/e64cf75e-a85a-43af-88af-881e7e871e07",
            "display": "pancreatic adenocarcinoma"
          }
        ],
        "dosage": {
          "text": "As prescribed per protocol",
          "route": {
            "coding": [
              {
                "system": "http://snomed.info/sct",
                "code": "47625008",
                "display": "Intravenous route"
              }
            ]
          },
          "dose": {
            "value": 1,
            "unit": "dose",
            "system": "http://unitsofmeasure.org",
            "code": "1"
          }
        }
      },
      "request": {
        "method": "PUT",
        "url": "MedicationAdministration/65c8c6aa-a94e-48d8-b9ab-228ae0f48857"
      }
    },
    {
      "resource": {
        "resourceType": "Encounter",
        "id": "0e026fc5-6850-472f-a2cf-f68442981a57",
        "status": "finished",
        "class": {
          "system": "http://terminology.hl7.org/CodeSystem/v3-ActCode",
          "code": "AMB",
          "display": "Ambulatory"
        },
        "type": [
          {
            "coding": [
              {
                "system": "http://snomed.info/sct",
                "code": "308646001",
                "display": "Chemotherapy Cycle 4"
              }
            ],
            "text": "Chemotherapy Cycle 4"
          }
        ],
        "subject": {
          "reference": "Patient/8aa31ec6-76d3-494a-a865-82dd9be7c2a7",
          "display": "Aisha Nguyen"
        },
        "participant": [
          {
            "individual": {
              "reference": "Practitioner/297a3fff-5324-45dd-861b-c8e0fc37ae6a",
              "display": "Dr. Sarah Johnson"
            }
          }
        ],
        "period": {
          "start": "2019-06-03"
        },
        "serviceProvider": {
          "reference": "Organization/a806e326-2868-4fb4-9817-dc7c400af0b5",
          "display": "Comprehensive Cancer Center"
        },
        "reasonReference": [
          {
            "reference": "Condition/e64cf75e-a85a-43af-88af-881e7e871e07",
            "display": "pancreatic adenocarcinoma"
          }
        ]
      },
      "request": {
        "method": "PUT",
        "url": "Encounter/0e026fc5-6850-472f-a2cf-f68442981a57"
      }
    },
    {
      "resource": {
        "resourceType": "Procedure",
        "id": "6a4f73cb-2a68-4140-abea-404db6a44473",
        "status": "completed",
        "code": {
          "coding": [
            {
              "system": "http://snomed.info/sct",
              "code": "387713003",
              "display": "IV Chemotherapy"
            }
          ],
          "text": "IV Chemotherapy"
        },
        "subject": {
          "reference": "Patient/8aa31ec6-76d3-494a-a865-82dd9be7c2a7",
          "display": "Aisha Nguyen"
        },
        "encounter": {
          "reference": "Encounter/0e026fc5-6850-472f-a2cf-f68442981a57"
        },
        "performedDateTime": "2019-06-03",
        "performer": [
          {
            "actor": {
              "reference": "Practitioner/297a3fff-5324-45dd-861b-c8e0fc37ae6a",
              "display": "Dr. Sarah Johnson"
            }
          }
        ],
        "reasonReference": [
          {
            "reference": "Condition/e64cf75e-a85a-43af-88af-881e7e871e07",
            "display": "pancreatic adenocarcinoma"
          }
        ]
      },
      "request": {
        "method": "PUT",
        "url": "Procedure/6a4f73cb-2a68-4140-abea-404db6a44473"
      }
    },
    {
      "resource": {
        "resourceType": "MedicationAdministration",
        "id": "997039a9-50f0-48a0-be0f-09c816de7ddc",
        "status": "completed",
        "medicationCodeableConcept": {
          "coding": [
            {
              "system": "http://www.nlm.nih.gov/research/umls/rxnorm",
              "code": "123456",
              "display": "Oxaliplatin"
            }
          ],
          "text": "Oxaliplatin"
        },
        "subject": {
          "reference": "Patient/8aa31ec6-76d3-494a-a865-82dd9be7c2a7",
          "display": "Aisha Nguyen"
        },
        "context": {
          "reference": "Encounter/0e026fc5-6850-472f-a2cf-f68442981a57"
        },
        "effectiveDateTime": "2019-06-03",
        "performer": [
          {
            "actor": {
              "reference": "Practitioner/297a3fff-5324-45dd-861b-c8e0fc37ae6a",
              "display": "Dr. Sarah Johnson"
            }
          }
        ],
        "reasonReference": [
          {
            "reference": "Condition/e64cf75e-a85a-43af-88af-881e7e871e07",
            "display": "pancreatic adenocarcinoma"
          }
        ],
        "dosage": {
          "text": "As prescribed per protocol",
          "route": {
            "coding": [
              {
                "system": "http://snomed.info/sct",
                "code": "47625008",
                "display": "Intravenous route"
              }
            ]
          },
          "dose": {
            "value": 1,
            "unit": "dose",
            "system": "http://unitsofmeasure.org",
            "code": "1"
          }
        }
      },
      "request": {
        "method": "PUT",
        "url": "MedicationAdministration/997039a9-50f0-48a0-be0f-09c816de7ddc"
      }
    },
    {
      "resource": {
        "resourceType": "MedicationAdministration",
        "id": "7eba3158-886b-42f2-93b3-301e7a47e09c",
        "status": "completed",
        "medicationCodeableConcept": {
          "coding": [
            {
              "system": "http://www.nlm.nih.gov/research/umls/rxnorm",
              "code": "123456",
              "display": "Fluorouracil"
            }
          ],
          "text": "Fluorouracil"
        },
        "subject": {
          "reference": "Patient/8aa31ec6-76d3-494a-a865-82dd9be7c2a7",
          "display": "Aisha Nguyen"
        },
        "context": {
          "reference": "Encounter/0e026fc5-6850-472f-a2cf-f68442981a57"
        },
        "effectiveDateTime": "2019-06-03",
        "performer": [
          {
            "actor": {
              "reference": "Practitioner/297a3fff-5324-45dd-861b-c8e0fc37ae6a",
              "display": "Dr. Sarah Johnson"
            }
          }
        ],
        "reasonReference": [
          {
            "reference": "Condition/e64cf75e-a85a-43af-88af-881e7e871e07",
            "display": "pancreatic adenocarcinoma"
          }
        ],
        "dosage": {
          "text": "As prescribed per protocol",
          "route": {
            "coding": [
              {
                "system": "http://snomed.info/sct",
                "code": "47625008",
                "display": "Intravenous route"
              }
            ]
          },
          "dose": {
            "value": 1,
            "unit": "dose",
            "system": "http://unitsofmeasure.org",
            "code": "1"
          }
        }
      },
      "request": {
        "method": "PUT",
        "url": "MedicationAdministration/7eba3158-886b-42f2-93b3-301e7a47e09c"
      }
    },
    {
      "resource": {
        "resourceType": "Encounter",
        "id": "958d3cdc-8c6a-49a9-bf54-4d9bcc851844",
        "status": "finished",
        "class": {
          "system": "http://terminology.hl7.org/CodeSystem/v3-ActCode",
          "code": "AMB",
          "display": "Ambulatory"
        },
        "type": [
          {
            "coding": [
              {
                "system": "http://snomed.info/sct",
                "code": "308646001",
                "display": "Chemotherapy Cycle 5"
              }
            ],
            "text": "Chemotherapy Cycle 5"
          }
        ],
        "subject": {
          "reference": "Patient/8aa31ec6-76d3-494a-a865-82dd9be7c2a7",
          "display": "Aisha Nguyen"
        },
        "participant": [
          {
            "individual": {
              "reference": "Practitioner/297a3fff-5324-45dd-861b-c8e0fc37ae6a",
              "display": "Dr. Sarah Johnson"
            }
          }
        ],
        "period": {
          "start": "2019-06-24"
        },
        "serviceProvider": {
          "reference": "Organization/a806e326-2868-4fb4-9817-dc7c400af0b5",
          "display": "Comprehensive Cancer Center"
        },
        "reasonReference": [
          {
            "reference": "Condition/e64cf75e-a85a-43af-88af-881e7e871e07",
            "display": "pancreatic adenocarcinoma"
          }
        ]
      },
      "request": {
        "method": "PUT",
        "url": "Encounter/958d3cdc-8c6a-49a9-bf54-4d9bcc851844"
      }
    },
    {
      "resource": {
        "resourceType": "Procedure",
        "id": "093e0b9d-61a9-4bba-84cf-96eaf492dd59",
        "status": "completed",
        "code": {
          "coding": [
            {
              "system": "http://snomed.info/sct",
              "code": "387713003",
              "display": "IV Chemotherapy"
            }
          ],
          "text": "IV Chemotherapy"
        },
        "subject": {
          "reference": "Patient/8aa31ec6-76d3-494a-a865-82dd9be7c2a7",
          "display": "Aisha Nguyen"
        },
        "encounter": {
          "reference": "Encounter/958d3cdc-8c6a-49a9-bf54-4d9bcc851844"
        },
        "performedDateTime": "2019-06-24",
        "performer": [
          {
            "actor": {
              "reference": "Practitioner/297a3fff-5324-45dd-861b-c8e0fc37ae6a",
              "display": "Dr. Sarah Johnson"
            }
          }
        ],
        "reasonReference": [
          {
            "reference": "Condition/e64cf75e-a85a-43af-88af-881e7e871e07",
            "display": "pancreatic adenocarcinoma"
          }
        ]
      },
      "request": {
        "method": "PUT",
        "url": "Procedure/093e0b9d-61a9-4bba-84cf-96eaf492dd59"
      }
    },
    {
      "resource": {
        "resourceType": "MedicationAdministration",
        "id": "f7c618bb-159a-4782-a210-7b5384bb3b7e",
        "status": "completed",
        "medicationCodeableConcept": {
          "coding": [
            {
              "system": "http://www.nlm.nih.gov/research/umls/rxnorm",
              "code": "123456",
              "display": "Oxaliplatin"
            }
          ],
          "text": "Oxaliplatin"
        },
        "subject": {
          "reference": "Patient/8aa31ec6-76d3-494a-a865-82dd9be7c2a7",
          "display": "Aisha Nguyen"
        },
        "context": {
          "reference": "Encounter/958d3cdc-8c6a-49a9-bf54-4d9bcc851844"
        },
        "effectiveDateTime": "2019-06-24",
        "performer": [
          {
            "actor": {
              "reference": "Practitioner/297a3fff-5324-45dd-861b-c8e0fc37ae6a",
              "display": "Dr. Sarah Johnson"
            }
          }
        ],
        "reasonReference": [
          {
            "reference": "Condition/e64cf75e-a85a-43af-88af-881e7e871e07",
            "display": "pancreatic adenocarcinoma"
          }
        ],
        "dosage": {
          "text": "As prescribed per protocol",
          "route": {
            "coding": [
              {
                "system": "http://snomed.info/sct",
                "code": "47625008",
                "display": "Intravenous route"
              }
            ]
          },
          "dose": {
            "value": 1,
            "unit": "dose",
            "system": "http://unitsofmeasure.org",
            "code": "1"
          }
        }
      },
      "request": {
        "method": "PUT",
        "url": "MedicationAdministration/f7c618bb-159a-4782-a210-7b5384bb3b7e"
      }
    },
    {
      "resource": {
        "resourceType": "MedicationAdministration",
        "id": "88aada85-3eea-49d0-bbdc-bca167d1f4b1",
        "status": "completed",
        "medicationCodeableConcept": {
          "coding": [
            {
              "system": "http://www.nlm.nih.gov/research/umls/rxnorm",
              "code": "123456",
              "display": "Fluorouracil"
            }
          ],
          "text": "Fluorouracil"
        },
        "subject": {
          "reference": "Patient/8aa31ec6-76d3-494a-a865-82dd9be7c2a7",
          "display": "Aisha Nguyen"
        },
        "context": {
          "reference": "Encounter/958d3cdc-8c6a-49a9-bf54-4d9bcc851844"
        },
        "effectiveDateTime": "2019-06-24",
        "performer": [
          {
            "actor": {
              "reference": "Practitioner/297a3fff-5324-45dd-861b-c8e0fc37ae6a",
              "display": "Dr. Sarah Johnson"
            }
          }
        ],
        "reasonReference": [
          {
            "reference": "Condition/e64cf75e-a85a-43af-88af-881e7e871e07",
            "display": "pancreatic adenocarcinoma"
          }
        ],
        "dosage": {
          "text": "As prescribed per protocol",
          "route": {
            "coding": [
              {
                "system": "http://snomed.info/sct",
                "code": "47625008",
                "display": "Intravenous route"
              }
            ]
          },
          "dose": {
            "value": 1,
            "unit": "dose",
            "system": "http://unitsofmeasure.org",
            "code": "1"
          }
        }
      },
      "request": {
        "method": "PUT",
        "url": "MedicationAdministration/88aada85-3eea-49d0-bbdc-bca167d1f4b1"
      }
    },
    {
      "resource": {
        "resourceType": "Encounter",
        "id": "db4be620-5bf0-4622-8826-4e4c16b1c0f4",
        "status": "finished",
        "class": {
          "system": "http://terminology.hl7.org/CodeSystem/v3-ActCode",
          "code": "AMB",
          "display": "Ambulatory"
        },
        "type": [
          {
            "coding": [
              {
                "system": "http://snomed.info/sct",
                "code": "308646001",
                "display": "Chemotherapy Cycle 6"
              }
            ],
            "text": "Chemotherapy Cycle 6"
          }
        ],
        "subject": {
          "reference": "Patient/8aa31ec6-76d3-494a-a865-82dd9be7c2a7",
          "display": "Aisha Nguyen"
        },
        "participant": [
          {
            "individual": {
              "reference": "Practitioner/297a3fff-5324-45dd-861b-c8e0fc37ae6a",
              "display": "Dr. Sarah Johnson"
            }
          }
        ],
        "period": {
          "start": "2019-07-15"
        },
        "serviceProvider": {
          "reference": "Organization/a806e326-2868-4fb4-9817-dc7c400af0b5",
          "display": "Comprehensive Cancer Center"
        },
        "reasonReference": [
          {
            "reference": "Condition/e64cf75e-a85a-43af-88af-881e7e871e07",
            "display": "pancreatic adenocarcinoma"
          }
        ]
      },
      "request": {
        "method": "PUT",
        "url": "Encounter/db4be620-5bf0-4622-8826-4e4c16b1c0f4"
      }
    },
    {
      "resource": {
        "resourceType": "Procedure",
        "id": "e747d009-ba67-49da-8980-c84e7ae1feac",
        "status": "completed",
        "code": {
          "coding": [
            {
              "system": "http://snomed.info/sct",
              "code": "387713003",
              "display": "IV Chemotherapy"
            }
          ],
          "text": "IV Chemotherapy"
        },
        "subject": {
          "reference": "Patient/8aa31ec6-76d3-494a-a865-82dd9be7c2a7",
          "display": "Aisha Nguyen"
        },
        "encounter": {
          "reference": "Encounter/db4be620-5bf0-4622-8826-4e4c16b1c0f4"
        },
        "performedDateTime": "2019-07-15",
        "performer": [
          {
            "actor": {
              "reference": "Practitioner/297a3fff-5324-45dd-861b-c8e0fc37ae6a",
              "display": "Dr. Sarah Johnson"
            }
          }
        ],
        "reasonReference": [
          {
            "reference": "Condition/e64cf75e-a85a-43af-88af-881e7e871e07",
            "display": "pancreatic adenocarcinoma"
          }
        ]
      },
      "request": {
        "method": "PUT",
        "url": "Procedure/e747d009-ba67-49da-8980-c84e7ae1feac"
      }
    },
    {
      "resource": {
        "resourceType": "MedicationAdministration",
        "id": "286414b8-847a-4d5e-93be-b6bad0270d9d",
        "status": "completed",
        "medicationCodeableConcept": {
          "coding": [
            {
              "system": "http://www.nlm.nih.gov/research/umls/rxnorm",
              "code": "123456",
              "display": "Oxaliplatin"
            }
          ],
          "text": "Oxaliplatin"
        },
        "subject": {
          "reference": "Patient/8aa31ec6-76d3-494a-a865-82dd9be7c2a7",
          "display": "Aisha Nguyen"
        },
        "context": {
          "reference": "Encounter/db4be620-5bf0-4622-8826-4e4c16b1c0f4"
        },
        "effectiveDateTime": "2019-07-15",
        "performer": [
          {
            "actor": {
              "reference": "Practitioner/297a3fff-5324-45dd-861b-c8e0fc37ae6a",
              "display": "Dr. Sarah Johnson"
            }
          }
        ],
        "reasonReference": [
          {
            "reference": "Condition/e64cf75e-a85a-43af-88af-881e7e871e07",
            "display": "pancreatic adenocarcinoma"
          }
        ],
        "dosage": {
          "text": "As prescribed per protocol",
          "route": {
            "coding": [
              {
                "system": "http://snomed.info/sct",
                "code": "47625008",
                "display": "Intravenous route"
              }
            ]
          },
          "dose": {
            "value": 1,
            "unit": "dose",
            "system": "http://unitsofmeasure.org",
            "code": "1"
          }
        }
      },
      "request": {
        "method": "PUT",
        "url": "MedicationAdministration/286414b8-847a-4d5e-93be-b6bad0270d9d"
      }
    },
    {
      "resource": {
        "resourceType": "MedicationAdministration",
        "id": "05191b24-ba6e-4ac3-8328-bb0c8fa7dc2d",
        "status": "completed",
        "medicationCodeableConcept": {
          "coding": [
            {
              "system": "http://www.nlm.nih.gov/research/umls/rxnorm",
              "code": "123456",
              "display": "Fluorouracil"
            }
          ],
          "text": "Fluorouracil"
        },
        "subject": {
          "reference": "Patient/8aa31ec6-76d3-494a-a865-82dd9be7c2a7",
          "display": "Aisha Nguyen"
        },
        "context": {
          "reference": "Encounter/db4be620-5bf0-4622-8826-4e4c16b1c0f4"
        },
        "effectiveDateTime": "2019-07-15",
        "performer": [
          {
            "actor": {
              "reference": "Practitioner/297a3fff-5324-45dd-861b-c8e0fc37ae6a",
              "display": "Dr. Sarah Johnson"
            }
          }
        ],
        "reasonReference": [
          {
            "reference": "Condition/e64cf75e-a85a-43af-88af-881e7e871e07",
            "display": "pancreatic adenocarcinoma"
          }
        ],
        "dosage": {
          "text": "As prescribed per protocol",
          "route": {
            "coding": [
              {
                "system": "http://snomed.info/sct",
                "code": "47625008",
                "display": "Intravenous route"
              }
            ]
          },
          "dose": {
            "value": 1,
            "unit": "dose",
            "system": "http://unitsofmeasure.org",
            "code": "1"
          }
        }
      },
      "request": {
        "method": "PUT",
        "url": "MedicationAdministration/05191b24-ba6e-4ac3-8328-bb0c8fa7dc2d"
      }
    },
    {
      "resource": {
        "resourceType": "Encounter",
        "id": "61195af9-35ad-4039-9ec6-b8a4532471d1",
        "status": "finished",
        "class": {
          "system": "http://terminology.hl7.org/CodeSystem/v3-ActCode",
          "code": "AMB",
          "display": "Ambulatory"
        },
        "type": [
          {
            "coding": [
              {
                "system": "http://snomed.info/sct",
                "code": "308646001",
                "display": "Radiation Session 1"
              }
            ],
            "text": "Radiation Session 1"
          }
        ],
        "subject": {
          "reference": "Patient/8aa31ec6-76d3-494a-a865-82dd9be7c2a7",
          "display": "Aisha Nguyen"
        },
        "participant": [
          {
            "individual": {
              "reference": "Practitioner/297a3fff-5324-45dd-861b-c8e0fc37ae6a",
              "display": "Dr. Sarah Johnson"
            }
          }
        ],
        "period": {
          "start": "2019-10-01"
        },
        "serviceProvider": {
          "reference": "Organization/a806e326-2868-4fb4-9817-dc7c400af0b5",
          "display": "Comprehensive Cancer Center"
        },
        "reasonReference": [
          {
            "reference": "Condition/e64cf75e-a85a-43af-88af-881e7e871e07",
            "display": "pancreatic adenocarcinoma"
          }
        ]
      },
      "request": {
        "method": "PUT",
        "url": "Encounter/61195af9-35ad-4039-9ec6-b8a4532471d1"
      }
    },
    {
      "resource": {
        "resourceType": "Procedure",
        "id": "ff7f0a11-c484-474a-8761-88106be6bb3c",
        "status": "completed",
        "code": {
          "coding": [
            {
              "system": "http://snomed.info/sct",
              "code": "387713003",
              "display": "Radiation Therapy"
            }
          ],
          "text": "Radiation Therapy"
        },
        "subject": {
          "reference": "Patient/8aa31ec6-76d3-494a-a865-82dd9be7c2a7",
          "display": "Aisha Nguyen"
        },
        "encounter": {
          "reference": "Encounter/61195af9-35ad-4039-9ec6-b8a4532471d1"
        },
        "performedDateTime": "2019-10-01",
        "performer": [
          {
            "actor": {
              "reference": "Practitioner/297a3fff-5324-45dd-861b-c8e0fc37ae6a",
              "display": "Dr. Sarah Johnson"
            }
          }
        ],
        "reasonReference": [
          {
            "reference": "Condition/e64cf75e-a85a-43af-88af-881e7e871e07",
            "display": "pancreatic adenocarcinoma"
          }
        ]
      },
      "request": {
        "method": "PUT",
        "url": "Procedure/ff7f0a11-c484-474a-8761-88106be6bb3c"
      }
    },
    {
      "resource": {
        "resourceType": "MedicationAdministration",
        "id": "55e5ef49-1580-4b15-9de8-812114a786e9",
        "status": "completed",
        "medicationCodeableConcept": {
          "coding": [
            {
              "system": "http://www.nlm.nih.gov/research/umls/rxnorm",
              "code": "123456",
              "display": "Anti-nausea medication"
            }
          ],
          "text": "Anti-nausea medication"
        },
        "subject": {
          "reference": "Patient/8aa31ec6-76d3-494a-a865-82dd9be7c2a7",
          "display": "Aisha Nguyen"
        },
        "context": {
          "reference": "Encounter/61195af9-35ad-4039-9ec6-b8a4532471d1"
        },
        "effectiveDateTime": "2019-10-01",
        "performer": [
          {
            "actor": {
              "reference": "Practitioner/297a3fff-5324-45dd-861b-c8e0fc37ae6a",
              "display": "Dr. Sarah Johnson"
            }
          }
        ],
        "reasonReference": [
          {
            "reference": "Condition/e64cf75e-a85a-43af-88af-881e7e871e07",
            "display": "pancreatic adenocarcinoma"
          }
        ],
        "dosage": {
          "text": "As prescribed per protocol",
          "route": {
            "coding": [
              {
                "system": "http://snomed.info/sct",
                "code": "47625008",
                "display": "Intravenous route"
              }
            ]
          },
          "dose": {
            "value": 1,
            "unit": "dose",
            "system": "http://unitsofmeasure.org",
            "code": "1"
          }
        }
      },
      "request": {
        "method": "PUT",
        "url": "MedicationAdministration/55e5ef49-1580-4b15-9de8-812114a786e9"
      }
    },
    {
      "resource": {
        "resourceType": "MedicationAdministration",
        "id": "bfb30410-61eb-4813-965a-4141047cae0a",
        "status": "completed",
        "medicationCodeableConcept": {
          "coding": [
            {
              "system": "http://www.nlm.nih.gov/research/umls/rxnorm",
              "code": "123456",
              "display": "Skin cream"
            }
          ],
          "text": "Skin cream"
        },
        "subject": {
          "reference": "Patient/8aa31ec6-76d3-494a-a865-82dd9be7c2a7",
          "display": "Aisha Nguyen"
        },
        "context": {
          "reference": "Encounter/61195af9-35ad-4039-9ec6-b8a4532471d1"
        },
        "effectiveDateTime": "2019-10-01",
        "performer": [
          {
            "actor": {
              "reference": "Practitioner/297a3fff-5324-45dd-861b-c8e0fc37ae6a",
              "display": "Dr. Sarah Johnson"
            }
          }
        ],
        "reasonReference": [
          {
            "reference": "Condition/e64cf75e-a85a-43af-88af-881e7e871e07",
            "display": "pancreatic adenocarcinoma"
          }
        ],
        "dosage": {
          "text": "As prescribed per protocol",
          "route": {
            "coding": [
              {
                "system": "http://snomed.info/sct",
                "code": "47625008",
                "display": "Intravenous route"
              }
            ]
          },
          "dose": {
            "value": 1,
            "unit": "dose",
            "system": "http://unitsofmeasure.org",
            "code": "1"
          }
        }
      },
      "request": {
        "method": "PUT",
        "url": "MedicationAdministration/bfb30410-61eb-4813-965a-4141047cae0a"
      }
    },
    {
      "resource": {
        "resourceType": "Encounter",
        "id": "140506d5-0546-40c9-95bd-568efe1b916e",
        "status": "finished",
        "class": {
          "system": "http://terminology.hl7.org/CodeSystem/v3-ActCode",
          "code": "AMB",
          "display": "Ambulatory"
        },
        "type": [
          {
            "coding": [
              {
                "system": "http://snomed.info/sct",
                "code": "308646001",
                "display": "Radiation Session 2"
              }
            ],
            "text": "Radiation Session 2"
          }
        ],
        "subject": {
          "reference": "Patient/8aa31ec6-76d3-494a-a865-82dd9be7c2a7",
          "display": "Aisha Nguyen"
        },
        "participant": [
          {
            "individual": {
              "reference": "Practitioner/297a3fff-5324-45dd-861b-c8e0fc37ae6a",
              "display": "Dr. Sarah Johnson"
            }
          }
        ],
        "period": {
          "start": "2019-10-02"
        },
        "serviceProvider": {
          "reference": "Organization/a806e326-2868-4fb4-9817-dc7c400af0b5",
          "display": "Comprehensive Cancer Center"
        },
        "reasonReference": [
          {
            "reference": "Condition/e64cf75e-a85a-43af-88af-881e7e871e07",
            "display": "pancreatic adenocarcinoma"
          }
        ]
      },
      "request": {
        "method": "PUT",
        "url": "Encounter/140506d5-0546-40c9-95bd-568efe1b916e"
      }
    },
    {
      "resource": {
        "resourceType": "Procedure",
        "id": "b3909305-3e18-4ca5-9cc9-f2a7c6872df5",
        "status": "completed",
        "code": {
          "coding": [
            {
              "system": "http://snomed.info/sct",
              "code": "387713003",
              "display": "Radiation Therapy"
            }
          ],
          "text": "Radiation Therapy"
        },
        "subject": {
          "reference": "Patient/8aa31ec6-76d3-494a-a865-82dd9be7c2a7",
          "display": "Aisha Nguyen"
        },
        "encounter": {
          "reference": "Encounter/140506d5-0546-40c9-95bd-568efe1b916e"
        },
        "performedDateTime": "2019-10-02",
        "performer": [
          {
            "actor": {
              "reference": "Practitioner/297a3fff-5324-45dd-861b-c8e0fc37ae6a",
              "display": "Dr. Sarah Johnson"
            }
          }
        ],
        "reasonReference": [
          {
            "reference": "Condition/e64cf75e-a85a-43af-88af-881e7e871e07",
            "display": "pancreatic adenocarcinoma"
          }
        ]
      },
      "request": {
        "method": "PUT",
        "url": "Procedure/b3909305-3e18-4ca5-9cc9-f2a7c6872df5"
      }
    },
    {
      "resource": {
        "resourceType": "MedicationAdministration",
        "id": "4e8b0279-5781-4cd4-88a1-9e67fe17e657",
        "status": "completed",
        "medicationCodeableConcept": {
          "coding": [
            {
              "system": "http://www.nlm.nih.gov/research/umls/rxnorm",
              "code": "123456",
              "display": "Anti-nausea medication"
            }
          ],
          "text": "Anti-nausea medication"
        },
        "subject": {
          "reference": "Patient/8aa31ec6-76d3-494a-a865-82dd9be7c2a7",
          "display": "Aisha Nguyen"
        },
        "context": {
          "reference": "Encounter/140506d5-0546-40c9-95bd-568efe1b916e"
        },
        "effectiveDateTime": "2019-10-02",
        "performer": [
          {
            "actor": {
              "reference": "Practitioner/297a3fff-5324-45dd-861b-c8e0fc37ae6a",
              "display": "Dr. Sarah Johnson"
            }
          }
        ],
        "reasonReference": [
          {
            "reference": "Condition/e64cf75e-a85a-43af-88af-881e7e871e07",
            "display": "pancreatic adenocarcinoma"
          }
        ],
        "dosage": {
          "text": "As prescribed per protocol",
          "route": {
            "coding": [
              {
                "system": "http://snomed.info/sct",
                "code": "47625008",
                "display": "Intravenous route"
              }
            ]
          },
          "dose": {
            "value": 1,
            "unit": "dose",
            "system": "http://unitsofmeasure.org",
            "code": "1"
          }
        }
      },
      "request": {
        "method": "PUT",
        "url": "MedicationAdministration/4e8b0279-5781-4cd4-88a1-9e67fe17e657"
      }
    },
    {
      "resource": {
        "resourceType": "MedicationAdministration",
        "id": "09bde719-2fb8-465e-a06a-5de4d8331a93",
        "status": "completed",
        "medicationCodeableConcept": {
          "coding": [
            {
              "system": "http://www.nlm.nih.gov/research/umls/rxnorm",
              "code": "123456",
              "display": "Skin cream"
            }
          ],
          "text": "Skin cream"
        },
        "subject": {
          "reference": "Patient/8aa31ec6-76d3-494a-a865-82dd9be7c2a7",
          "display": "Aisha Nguyen"
        },
        "context": {
          "reference": "Encounter/140506d5-0546-40c9-95bd-568efe1b916e"
        },
        "effectiveDateTime": "2019-10-02",
        "performer": [
          {
            "actor": {
              "reference": "Practitioner/297a3fff-5324-45dd-861b-c8e0fc37ae6a",
              "display": "Dr. Sarah Johnson"
            }
          }
        ],
        "reasonReference": [
          {
            "reference": "Condition/e64cf75e-a85a-43af-88af-881e7e871e07",
            "display": "pancreatic adenocarcinoma"
          }
        ],
        "dosage": {
          "text": "As prescribed per protocol",
          "route": {
            "coding": [
              {
                "system": "http://snomed.info/sct",
                "code": "47625008",
                "display": "Intravenous route"
              }
            ]
          },
          "dose": {
            "value": 1,
            "unit": "dose",
            "system": "http://unitsofmeasure.org",
            "code": "1"
          }
        }
      },
      "request": {
        "method": "PUT",
        "url": "MedicationAdministration/09bde719-2fb8-465e-a06a-5de4d8331a93"
      }
    },
    {
      "resource": {
        "resourceType": "Encounter",
        "id": "b3618a1f-5f7f-4ff8-89d7-3064e9290d7a",
        "status": "finished",
        "class": {
          "system": "http://terminology.hl7.org/CodeSystem/v3-ActCode",
          "code": "AMB",
          "display": "Ambulatory"
        },
        "type": [
          {
            "coding": [
              {
                "system": "http://snomed.info/sct",
                "code": "308646001",
                "display": "Radiation Session 3"
              }
            ],
            "text": "Radiation Session 3"
          }
        ],
        "subject": {
          "reference": "Patient/8aa31ec6-76d3-494a-a865-82dd9be7c2a7",
          "display": "Aisha Nguyen"
        },
        "participant": [
          {
            "individual": {
              "reference": "Practitioner/297a3fff-5324-45dd-861b-c8e0fc37ae6a",
              "display": "Dr. Sarah Johnson"
            }
          }
        ],
        "period": {
          "start": "2019-10-03"
        },
        "serviceProvider": {
          "reference": "Organization/a806e326-2868-4fb4-9817-dc7c400af0b5",
          "display": "Comprehensive Cancer Center"
        },
        "reasonReference": [
          {
            "reference": "Condition/e64cf75e-a85a-43af-88af-881e7e871e07",
            "display": "pancreatic adenocarcinoma"
          }
        ]
      },
      "request": {
        "method": "PUT",
        "url": "Encounter/b3618a1f-5f7f-4ff8-89d7-3064e9290d7a"
      }
    },
    {
      "resource": {
        "resourceType": "Procedure",
        "id": "a756e0b5-169a-4163-b0de-05bd80a0e904",
        "status": "completed",
        "code": {
          "coding": [
            {
              "system": "http://snomed.info/sct",
              "code": "387713003",
              "display": "Radiation Therapy"
            }
          ],
          "text": "Radiation Therapy"
        },
        "subject": {
          "reference": "Patient/8aa31ec6-76d3-494a-a865-82dd9be7c2a7",
          "display": "Aisha Nguyen"
        },
        "encounter": {
          "reference": "Encounter/b3618a1f-5f7f-4ff8-89d7-3064e9290d7a"
        },
        "performedDateTime": "2019-10-03",
        "performer": [
          {
            "actor": {
              "reference": "Practitioner/297a3fff-5324-45dd-861b-c8e0fc37ae6a",
              "display": "Dr. Sarah Johnson"
            }
          }
        ],
        "reasonReference": [
          {
            "reference": "Condition/e64cf75e-a85a-43af-88af-881e7e871e07",
            "display": "pancreatic adenocarcinoma"
          }
        ]
      },
      "request": {
        "method": "PUT",
        "url": "Procedure/a756e0b5-169a-4163-b0de-05bd80a0e904"
      }
    },
    {
      "resource": {
        "resourceType": "MedicationAdministration",
        "id": "945eee00-0510-4ccb-9bf3-c9d2178bff3f",
        "status": "completed",
        "medicationCodeableConcept": {
          "coding": [
            {
              "system": "http://www.nlm.nih.gov/research/umls/rxnorm",
              "code": "123456",
              "display": "Anti-nausea medication"
            }
          ],
          "text": "Anti-nausea medication"
        },
        "subject": {
          "reference": "Patient/8aa31ec6-76d3-494a-a865-82dd9be7c2a7",
          "display": "Aisha Nguyen"
        },
        "context": {
          "reference": "Encounter/b3618a1f-5f7f-4ff8-89d7-3064e9290d7a"
        },
        "effectiveDateTime": "2019-10-03",
        "performer": [
          {
            "actor": {
              "reference": "Practitioner/297a3fff-5324-45dd-861b-c8e0fc37ae6a",
              "display": "Dr. Sarah Johnson"
            }
          }
        ],
        "reasonReference": [
          {
            "reference": "Condition/e64cf75e-a85a-43af-88af-881e7e871e07",
            "display": "pancreatic adenocarcinoma"
          }
        ],
        "dosage": {
          "text": "As prescribed per protocol",
          "route": {
            "coding": [
              {
                "system": "http://snomed.info/sct",
                "code": "47625008",
                "display": "Intravenous route"
              }
            ]
          },
          "dose": {
            "value": 1,
            "unit": "dose",
            "system": "http://unitsofmeasure.org",
            "code": "1"
          }
        }
      },
      "request": {
        "method": "PUT",
        "url": "MedicationAdministration/945eee00-0510-4ccb-9bf3-c9d2178bff3f"
      }
    },
    {
      "resource": {
        "resourceType": "MedicationAdministration",
        "id": "d6b08f05-6e33-4ef9-b9a1-06e03f6b66e2",
        "status": "completed",
        "medicationCodeableConcept": {
          "coding": [
            {
              "system": "http://www.nlm.nih.gov/research/umls/rxnorm",
              "code": "123456",
              "display": "Skin cream"
            }
          ],
          "text": "Skin cream"
        },
        "subject": {
          "reference": "Patient/8aa31ec6-76d3-494a-a865-82dd9be7c2a7",
          "display": "Aisha Nguyen"
        },
        "context": {
          "reference": "Encounter/b3618a1f-5f7f-4ff8-89d7-3064e9290d7a"
        },
        "effectiveDateTime": "2019-10-03",
        "performer": [
          {
            "actor": {
              "reference": "Practitioner/297a3fff-5324-45dd-861b-c8e0fc37ae6a",
              "display": "Dr. Sarah Johnson"
            }
          }
        ],
        "reasonReference": [
          {
            "reference": "Condition/e64cf75e-a85a-43af-88af-881e7e871e07",
            "display": "pancreatic adenocarcinoma"
          }
        ],
        "dosage": {
          "text": "As prescribed per protocol",
          "route": {
            "coding": [
              {
                "system": "http://snomed.info/sct",
                "code": "47625008",
                "display": "Intravenous route"
              }
            ]
          },
          "dose": {
            "value": 1,
            "unit": "dose",
            "system": "http://unitsofmeasure.org",
            "code": "1"
          }
        }
      },
      "request": {
        "method": "PUT",
        "url": "MedicationAdministration/d6b08f05-6e33-4ef9-b9a1-06e03f6b66e2"
      }
    },
    {
      "resource": {
        "resourceType": "Encounter",
        "id": "695e5db6-2b6a-4821-aa21-49afcfa4155b",
        "status": "finished",
        "class": {
          "system": "http://terminology.hl7.org/CodeSystem/v3-ActCode",
          "code": "AMB",
          "display": "Ambulatory"
        },
        "type": [
          {
            "coding": [
              {
                "system": "http://snomed.info/sct",
                "code": "308646001",
                "display": "Radiation Session 4"
              }
            ],
            "text": "Radiation Session 4"
          }
        ],
        "subject": {
          "reference": "Patient/8aa31ec6-76d3-494a-a865-82dd9be7c2a7",
          "display": "Aisha Nguyen"
        },
        "participant": [
          {
            "individual": {
              "reference": "Practitioner/297a3fff-5324-45dd-861b-c8e0fc37ae6a",
              "display": "Dr. Sarah Johnson"
            }
          }
        ],
        "period": {
          "start": "2019-10-04"
        },
        "serviceProvider": {
          "reference": "Organization/a806e326-2868-4fb4-9817-dc7c400af0b5",
          "display": "Comprehensive Cancer Center"
        },
        "reasonReference": [
          {
            "reference": "Condition/e64cf75e-a85a-43af-88af-881e7e871e07",
            "display": "pancreatic adenocarcinoma"
          }
        ]
      },
      "request": {
        "method": "PUT",
        "url": "Encounter/695e5db6-2b6a-4821-aa21-49afcfa4155b"
      }
    },
    {
      "resource": {
        "resourceType": "Procedure",
        "id": "5c91f4b7-4bb8-46f1-a521-fabd4cf8c7f5",
        "status": "completed",
        "code": {
          "coding": [
            {
              "system": "http://snomed.info/sct",
              "code": "387713003",
              "display": "Radiation Therapy"
            }
          ],
          "text": "Radiation Therapy"
        },
        "subject": {
          "reference": "Patient/8aa31ec6-76d3-494a-a865-82dd9be7c2a7",
          "display": "Aisha Nguyen"
        },
        "encounter": {
          "reference": "Encounter/695e5db6-2b6a-4821-aa21-49afcfa4155b"
        },
        "performedDateTime": "2019-10-04",
        "performer": [
          {
            "actor": {
              "reference": "Practitioner/297a3fff-5324-45dd-861b-c8e0fc37ae6a",
              "display": "Dr. Sarah Johnson"
            }
          }
        ],
        "reasonReference": [
          {
            "reference": "Condition/e64cf75e-a85a-43af-88af-881e7e871e07",
            "display": "pancreatic adenocarcinoma"
          }
        ]
      },
      "request": {
        "method": "PUT",
        "url": "Procedure/5c91f4b7-4bb8-46f1-a521-fabd4cf8c7f5"
      }
    },
    {
      "resource": {
        "resourceType": "MedicationAdministration",
        "id": "cfe5213a-99e7-4c0f-a155-498877bfcbcd",
        "status": "completed",
        "medicationCodeableConcept": {
          "coding": [
            {
              "system": "http://www.nlm.nih.gov/research/umls/rxnorm",
              "code": "123456",
              "display": "Anti-nausea medication"
            }
          ],
          "text": "Anti-nausea medication"
        },
        "subject": {
          "reference": "Patient/8aa31ec6-76d3-494a-a865-82dd9be7c2a7",
          "display": "Aisha Nguyen"
        },
        "context": {
          "reference": "Encounter/695e5db6-2b6a-4821-aa21-49afcfa4155b"
        },
        "effectiveDateTime": "2019-10-04",
        "performer": [
          {
            "actor": {
              "reference": "Practitioner/297a3fff-5324-45dd-861b-c8e0fc37ae6a",
              "display": "Dr. Sarah Johnson"
            }
          }
        ],
        "reasonReference": [
          {
            "reference": "Condition/e64cf75e-a85a-43af-88af-881e7e871e07",
            "display": "pancreatic adenocarcinoma"
          }
        ],
        "dosage": {
          "text": "As prescribed per protocol",
          "route": {
            "coding": [
              {
                "system": "http://snomed.info/sct",
                "code": "47625008",
                "display": "Intravenous route"
              }
            ]
          },
          "dose": {
            "value": 1,
            "unit": "dose",
            "system": "http://unitsofmeasure.org",
            "code": "1"
          }
        }
      },
      "request": {
        "method": "PUT",
        "url": "MedicationAdministration/cfe5213a-99e7-4c0f-a155-498877bfcbcd"
      }
    },
    {
      "resource": {
        "resourceType": "MedicationAdministration",
        "id": "f2e87893-84af-498d-8a01-4827d3dd4d71",
        "status": "completed",
        "medicationCodeableConcept": {
          "coding": [
            {
              "system": "http://www.nlm.nih.gov/research/umls/rxnorm",
              "code": "123456",
              "display": "Skin cream"
            }
          ],
          "text": "Skin cream"
        },
        "subject": {
          "reference": "Patient/8aa31ec6-76d3-494a-a865-82dd9be7c2a7",
          "display": "Aisha Nguyen"
        },
        "context": {
          "reference": "Encounter/695e5db6-2b6a-4821-aa21-49afcfa4155b"
        },
        "effectiveDateTime": "2019-10-04",
        "performer": [
          {
            "actor": {
              "reference": "Practitioner/297a3fff-5324-45dd-861b-c8e0fc37ae6a",
              "display": "Dr. Sarah Johnson"
            }
          }
        ],
        "reasonReference": [
          {
            "reference": "Condition/e64cf75e-a85a-43af-88af-881e7e871e07",
            "display": "pancreatic adenocarcinoma"
          }
        ],
        "dosage": {
          "text": "As prescribed per protocol",
          "route": {
            "coding": [
              {
                "system": "http://snomed.info/sct",
                "code": "47625008",
                "display": "Intravenous route"
              }
            ]
          },
          "dose": {
            "value": 1,
            "unit": "dose",
            "system": "http://unitsofmeasure.org",
            "code": "1"
          }
        }
      },
      "request": {
        "method": "PUT",
        "url": "MedicationAdministration/f2e87893-84af-498d-8a01-4827d3dd4d71"
      }
    },
    {
      "resource": {
        "resourceType": "Encounter",
        "id": "15b22e0a-0997-4add-8ccc-0bec42375ca4",
        "status": "finished",
        "class": {
          "system": "http://terminology.hl7.org/CodeSystem/v3-ActCode",
          "code": "AMB",
          "display": "Ambulatory"
        },
        "type": [
          {
            "coding": [
              {
                "system": "http://snomed.info/sct",
                "code": "308646001",
                "display": "Radiation Session 5"
              }
            ],
            "text": "Radiation Session 5"
          }
        ],
        "subject": {
          "reference": "Patient/8aa31ec6-76d3-494a-a865-82dd9be7c2a7",
          "display": "Aisha Nguyen"
        },
        "participant": [
          {
            "individual": {
              "reference": "Practitioner/297a3fff-5324-45dd-861b-c8e0fc37ae6a",
              "display": "Dr. Sarah Johnson"
            }
          }
        ],
        "period": {
          "start": "2019-10-05"
        },
        "serviceProvider": {
          "reference": "Organization/a806e326-2868-4fb4-9817-dc7c400af0b5",
          "display": "Comprehensive Cancer Center"
        },
        "reasonReference": [
          {
            "reference": "Condition/e64cf75e-a85a-43af-88af-881e7e871e07",
            "display": "pancreatic adenocarcinoma"
          }
        ]
      },
      "request": {
        "method": "PUT",
        "url": "Encounter/15b22e0a-0997-4add-8ccc-0bec42375ca4"
      }
    },
    {
      "resource": {
        "resourceType": "Procedure",
        "id": "9c5a43d7-8285-4a66-b7e3-71e23902f8ee",
        "status": "completed",
        "code": {
          "coding": [
            {
              "system": "http://snomed.info/sct",
              "code": "387713003",
              "display": "Radiation Therapy"
            }
          ],
          "text": "Radiation Therapy"
        },
        "subject": {
          "reference": "Patient/8aa31ec6-76d3-494a-a865-82dd9be7c2a7",
          "display": "Aisha Nguyen"
        },
        "encounter": {
          "reference": "Encounter/15b22e0a-0997-4add-8ccc-0bec42375ca4"
        },
        "performedDateTime": "2019-10-05",
        "performer": [
          {
            "actor": {
              "reference": "Practitioner/297a3fff-5324-45dd-861b-c8e0fc37ae6a",
              "display": "Dr. Sarah Johnson"
            }
          }
        ],
        "reasonReference": [
          {
            "reference": "Condition/e64cf75e-a85a-43af-88af-881e7e871e07",
            "display": "pancreatic adenocarcinoma"
          }
        ]
      },
      "request": {
        "method": "PUT",
        "url": "Procedure/9c5a43d7-8285-4a66-b7e3-71e23902f8ee"
      }
    },
    {
      "resource": {
        "resourceType": "MedicationAdministration",
        "id": "9a00076c-d4af-4d91-b259-a4144301f7d4",
        "status": "completed",
        "medicationCodeableConcept": {
          "coding": [
            {
              "system": "http://www.nlm.nih.gov/research/umls/rxnorm",
              "code": "123456",
              "display": "Anti-nausea medication"
            }
          ],
          "text": "Anti-nausea medication"
        },
        "subject": {
          "reference": "Patient/8aa31ec6-76d3-494a-a865-82dd9be7c2a7",
          "display": "Aisha Nguyen"
        },
        "context": {
          "reference": "Encounter/15b22e0a-0997-4add-8ccc-0bec42375ca4"
        },
        "effectiveDateTime": "2019-10-05",
        "performer": [
          {
            "actor": {
              "reference": "Practitioner/297a3fff-5324-45dd-861b-c8e0fc37ae6a",
              "display": "Dr. Sarah Johnson"
            }
          }
        ],
        "reasonReference": [
          {
            "reference": "Condition/e64cf75e-a85a-43af-88af-881e7e871e07",
            "display": "pancreatic adenocarcinoma"
          }
        ],
        "dosage": {
          "text": "As prescribed per protocol",
          "route": {
            "coding": [
              {
                "system": "http://snomed.info/sct",
                "code": "47625008",
                "display": "Intravenous route"
              }
            ]
          },
          "dose": {
            "value": 1,
            "unit": "dose",
            "system": "http://unitsofmeasure.org",
            "code": "1"
          }
        }
      },
      "request": {
        "method": "PUT",
        "url": "MedicationAdministration/9a00076c-d4af-4d91-b259-a4144301f7d4"
      }
    },
    {
      "resource": {
        "resourceType": "MedicationAdministration",
        "id": "3fc28542-da7a-4e14-ad84-33b2bc55020f",
        "status": "completed",
        "medicationCodeableConcept": {
          "coding": [
            {
              "system": "http://www.nlm.nih.gov/research/umls/rxnorm",
              "code": "123456",
              "display": "Skin cream"
            }
          ],
          "text": "Skin cream"
        },
        "subject": {
          "reference": "Patient/8aa31ec6-76d3-494a-a865-82dd9be7c2a7",
          "display": "Aisha Nguyen"
        },
        "context": {
          "reference": "Encounter/15b22e0a-0997-4add-8ccc-0bec42375ca4"
        },
        "effectiveDateTime": "2019-10-05",
        "performer": [
          {
            "actor": {
              "reference": "Practitioner/297a3fff-5324-45dd-861b-c8e0fc37ae6a",
              "display": "Dr. Sarah Johnson"
            }
          }
        ],
        "reasonReference": [
          {
            "reference": "Condition/e64cf75e-a85a-43af-88af-881e7e871e07",
            "display": "pancreatic adenocarcinoma"
          }
        ],
        "dosage": {
          "text": "As prescribed per protocol",
          "route": {
            "coding": [
              {
                "system": "http://snomed.info/sct",
                "code": "47625008",
                "display": "Intravenous route"
              }
            ]
          },
          "dose": {
            "value": 1,
            "unit": "dose",
            "system": "http://unitsofmeasure.org",
            "code": "1"
          }
        }
      },
      "request": {
        "method": "PUT",
        "url": "MedicationAdministration/3fc28542-da7a-4e14-ad84-33b2bc55020f"
      }
    },
    {
      "resource": {
        "resourceType": "Encounter",
        "id": "cad6d5a9-c6f7-4458-99bc-8c396abb52da",
        "status": "finished",
        "class": {
          "system": "http://terminology.hl7.org/CodeSystem/v3-ActCode",
          "code": "AMB",
          "display": "Ambulatory"
        },
        "type": [
          {
            "coding": [
              {
                "system": "http://snomed.info/sct",
                "code": "308646001",
                "display": "Follow-up visit"
              }
            ],
            "text": "Follow-up visit"
          }
        ],
        "subject": {
          "reference": "Patient/8aa31ec6-76d3-494a-a865-82dd9be7c2a7",
          "display": "Aisha Nguyen"
        },
        "participant": [
          {
            "individual": {
              "reference": "Practitioner/297a3fff-5324-45dd-861b-c8e0fc37ae6a",
              "display": "Dr. Sarah Johnson"
            }
          }
        ],
        "period": {
          "start": "2019-11-15"
        },
        "serviceProvider": {
          "reference": "Organization/a806e326-2868-4fb4-9817-dc7c400af0b5",
          "display": "Comprehensive Cancer Center"
        },
        "reasonReference": [
          {
            "reference": "Condition/e64cf75e-a85a-43af-88af-881e7e871e07",
            "display": "pancreatic adenocarcinoma"
          }
        ]
      },
      "request": {
        "method": "PUT",
        "url": "Encounter/cad6d5a9-c6f7-4458-99bc-8c396abb52da"
      }
    },
    {
      "resource": {
        "resourceType": "Encounter",
        "id": "a00741bf-1a6d-4463-a2dc-4f12e3fe5007",
        "status": "finished",
        "class": {
          "system": "http://terminology.hl7.org/CodeSystem/v3-ActCode",
          "code": "AMB",
          "display": "Ambulatory"
        },
        "type": [
          {
            "coding": [
              {
                "system": "http://snomed.info/sct",
                "code": "308646001",
                "display": "Follow-up visit"
              }
            ],
            "text": "Follow-up visit"
          }
        ],
        "subject": {
          "reference": "Patient/8aa31ec6-76d3-494a-a865-82dd9be7c2a7",
          "display": "Aisha Nguyen"
        },
        "participant": [
          {
            "individual": {
              "reference": "Practitioner/297a3fff-5324-45dd-861b-c8e0fc37ae6a",
              "display": "Dr. Sarah Johnson"
            }
          }
        ],
        "period": {
          "start": "2019-12-15"
        },
        "serviceProvider": {
          "reference": "Organization/a806e326-2868-4fb4-9817-dc7c400af0b5",
          "display": "Comprehensive Cancer Center"
        },
        "reasonReference": [
          {
            "reference": "Condition/e64cf75e-a85a-43af-88af-881e7e871e07",
            "display": "pancreatic adenocarcinoma"
          }
        ]
      },
      "request": {
        "method": "PUT",
        "url": "Encounter/a00741bf-1a6d-4463-a2dc-4f12e3fe5007"
      }
    },
    {
      "resource": {
        "resourceType": "Encounter",
        "id": "5457df40-d0fa-4f3f-bb34-f9e0d105d88f",
        "status": "finished",
        "class": {
          "system": "http://terminology.hl7.org/CodeSystem/v3-ActCode",
          "code": "AMB",
          "display": "Ambulatory"
        },
        "type": [
          {
            "coding": [
              {
                "system": "http://snomed.info/sct",
                "code": "308646001",
                "display": "Follow-up visit"
              }
            ],
            "text": "Follow-up visit"
          }
        ],
        "subject": {
          "reference": "Patient/8aa31ec6-76d3-494a-a865-82dd9be7c2a7",
          "display": "Aisha Nguyen"
        },
        "participant": [
          {
            "individual": {
              "reference": "Practitioner/297a3fff-5324-45dd-861b-c8e0fc37ae6a",
              "display": "Dr. Sarah Johnson"
            }
          }
        ],
        "period": {
          "start": "2020-01-15"
        },
        "serviceProvider": {
          "reference": "Organization/a806e326-2868-4fb4-9817-dc7c400af0b5",
          "display": "Comprehensive Cancer Center"
        },
        "reasonReference": [
          {
            "reference": "Condition/e64cf75e-a85a-43af-88af-881e7e871e07",
            "display": "pancreatic adenocarcinoma"
          }
        ]
      },
      "request": {
        "method": "PUT",
        "url": "Encounter/5457df40-d0fa-4f3f-bb34-f9e0d105d88f"
      }
    },
    {
      "resource": {
        "resourceType": "Encounter",
        "id": "80ec49e8-373a-4fa7-860f-da4ad10c75dd",
        "status": "finished",
        "class": {
          "system": "http://terminology.hl7.org/CodeSystem/v3-ActCode",
          "code": "AMB",
          "display": "Ambulatory"
        },
        "type": [
          {
            "coding": [
              {
                "system": "http://snomed.info/sct",
                "code": "308646001",
                "display": "Follow-up visit"
              }
            ],
            "text": "Follow-up visit"
          }
        ],
        "subject": {
          "reference": "Patient/8aa31ec6-76d3-494a-a865-82dd9be7c2a7",
          "display": "Aisha Nguyen"
        },
        "participant": [
          {
            "individual": {
              "reference": "Practitioner/297a3fff-5324-45dd-861b-c8e0fc37ae6a",
              "display": "Dr. Sarah Johnson"
            }
          }
        ],
        "period": {
          "start": "2020-02-15"
        },
        "serviceProvider": {
          "reference": "Organization/a806e326-2868-4fb4-9817-dc7c400af0b5",
          "display": "Comprehensive Cancer Center"
        },
        "reasonReference": [
          {
            "reference": "Condition/e64cf75e-a85a-43af-88af-881e7e871e07",
            "display": "pancreatic adenocarcinoma"
          }
        ]
      },
      "request": {
        "method": "PUT",
        "url": "Encounter/80ec49e8-373a-4fa7-860f-da4ad10c75dd"
      }
    },
    {
      "resource": {
        "resourceType": "Encounter",
        "id": "5c22286f-187d-4acf-a8af-18088c56f795",
        "status": "finished",
        "class": {
          "system": "http://terminology.hl7.org/CodeSystem/v3-ActCode",
          "code": "AMB",
          "display": "Ambulatory"
        },
        "type": [
          {
            "coding": [
              {
                "system": "http://snomed.info/sct",
                "code": "308646001",
                "display": "Follow-up visit"
              }
            ],
            "text": "Follow-up visit"
          }
        ],
        "subject": {
          "reference": "Patient/8aa31ec6-76d3-494a-a865-82dd9be7c2a7",
          "display": "Aisha Nguyen"
        },
        "participant": [
          {
            "individual": {
              "reference": "Practitioner/297a3fff-5324-45dd-861b-c8e0fc37ae6a",
              "display": "Dr. Sarah Johnson"
            }
          }
        ],
        "period": {
          "start": "2020-03-15"
        },
        "serviceProvider": {
          "reference": "Organization/a806e326-2868-4fb4-9817-dc7c400af0b5",
          "display": "Comprehensive Cancer Center"
        },
        "reasonReference": [
          {
            "reference": "Condition/e64cf75e-a85a-43af-88af-881e7e871e07",
            "display": "pancreatic adenocarcinoma"
          }
        ]
      },
      "request": {
        "method": "PUT",
        "url": "Encounter/5c22286f-187d-4acf-a8af-18088c56f795"
      }
    },
    {
      "resource": {
        "resourceType": "DiagnosticReport",
        "status": "final",
        "category": [
          {
            "coding": [
              {
                "system": "http://terminology.hl7.org/CodeSystem/v2-0074",
                "code": "RAD",
                "display": "Radiology"
              }
            ]
          }
        ],
        "code": {
          "coding": [
            {
              "system": "http://loinc.org",
              "code": "18748-4",
              "display": "Diagnostic imaging study"
            }
          ]
        },
        "subject": {
          "reference": "Patient/8aa31ec6-76d3-494a-a865-82dd9be7c2a7",
          "display": "Aisha Nguyen"
        },
        "effectiveDateTime": "2019-11-15",
        "performer": [
          {
            "reference": "Practitioner/297a3fff-5324-45dd-861b-c8e0fc37ae6a",
            "display": "Dr. Sarah Johnson"
          }
        ],
        "conclusion": "Patient shows stable status for pancreatic adenocarcinoma. Aisha Nguyen, a 54-year-old Asian female diagnosed with Stage III pancreatic adenocarcinoma, underwent pancreatectomy followed by six cycles of chemotherapy with Oxaliplatin and Fluorouracil. Subsequently, she received 15 radiation therapy sessions. The patient is currently stable with regular follow-up visits for monitoring and support."
      },
      "request": {
        "method": "POST",
        "url": "DiagnosticReport"
      }
    },
    {
      "resource": {
        "resourceType": "Observation",
        "status": "final",
        "category": [
          {
            "coding": [
              {
                "system": "http://terminology.hl7.org/CodeSystem/observation-category",
                "code": "clinical",
                "display": "Clinical"
              }
            ]
          }
        ],
        "code": {
          "coding": [
            {
              "system": "http://loinc.org",
              "code": "11323-3",
              "display": "Health status"
            }
          ]
        },
        "subject": {
          "reference": "Patient/8aa31ec6-76d3-494a-a865-82dd9be7c2a7",
          "display": "Aisha Nguyen"
        },
        "valueString": "stable",
        "effectiveDateTime": "2019-11-15"
      },
      "request": {
        "method": "POST",
        "url": "Observation"
      }
    }
  ]
}