{
  "resourceType": "Bundle",
  "id": "f56bf3de-2797-48a5-b0fd-ea1f6df4db1e",
  "type": "transaction",
  "entry": [
    {
      "resource": {
        "resourceType": "Patient",
        "id": "b94bb6e2-5288-4400-aadf-da05747e031b",
        "name": [
          {
            "use": "official",
            "family": "Chen",
            "given": [
              "Sakura"
            ]
          }
        ],
        "gender": "female",
        "birthDate": "1965-08-12",
        "address": [
          {
            "use": "home",
            "line": [
              "123 Cherry Blossom Lane"
            ],
            "city": "San Francisco",
            "state": "CA",
            "postalCode": "94105",
            "country": "USA"
          }
        ],
        "telecom": [
          {
            "system": "phone",
            "value": "(415) 555-6789",
            "use": "home"
          },
          {
            "system": "email",
            "value": "sakura.chen@example.com",
            "use": "home"
          }
        ],
        "extension": [
          {
            "url": "http://hl7.org/fhir/us/core/StructureDefinition/us-core-ethnicity",
            "valueString": "Asian"
          }
        ]
      },
      "request": {
        "method": "PUT",
        "url": "Patient/b94bb6e2-5288-4400-aadf-da05747e031b"
      }
    },
    {
      "resource": {
        "resourceType": "Practitioner",
        "id": "f6485958-d13b-4680-bd80-e325236fa1da",
        "name": [
          {
            "use": "official",
            "family": "Johnson",
            "given": [
              "Dr. Sarah"
            ],
            "prefix": [
              "Dr."
            ]
          }
        ],
        "qualification": [
          {
            "code": {
              "coding": [
                {
                  "system": "http://terminology.hl7.org/CodeSystem/v2-0360",
                  "code": "MD",
                  "display": "Doctor of Medicine"
                }
              ]
            }
          }
        ]
      },
      "request": {
        "method": "PUT",
        "url": "Practitioner/f6485958-d13b-4680-bd80-e325236fa1da"
      }
    },
    {
      "resource": {
        "resourceType": "Organization",
        "id": "1b9d8fe8-67ea-4b03-b3b1-2358e32c94cb",
        "name": "Comprehensive Cancer Center",
        "type": [
          {
            "coding": [
              {
                "system": "http://terminology.hl7.org/CodeSystem/organization-type",
                "code": "prov",
                "display": "Healthcare Provider"
              }
            ]
          }
        ]
      },
      "request": {
        "method": "PUT",
        "url": "Organization/1b9d8fe8-67ea-4b03-b3b1-2358e32c94cb"
      }
    },
    {
      "resource": {
        "resourceType": "Condition",
        "id": "5e96a7a3-2692-4324-9fd5-3d39400fc6a9",
        "clinicalStatus": {
          "coding": [
            {
              "system": "http://terminology.hl7.org/CodeSystem/condition-clinical",
              "code": "resolved",
              "display": "Resolved"
            }
          ]
        },
        "verificationStatus": {
          "coding": [
            {
              "system": "http://terminology.hl7.org/CodeSystem/condition-ver-status",
              "code": "confirmed",
              "display": "Confirmed"
            }
          ]
        },
        "code": {
          "coding": [
            {
              "system": "http://snomed.info/sct",
              "code": "49436004",
              "display": "atrial fibrillation"
            }
          ],
          "text": "atrial fibrillation"
        },
        "subject": {
          "reference": "Patient/b94bb6e2-5288-4400-aadf-da05747e031b",
          "display": "Sakura Chen"
        },
        "onsetDateTime": "2021-03-15",
        "recordedDate": "2021-03-20"
      },
      "request": {
        "method": "PUT",
        "url": "Condition/5e96a7a3-2692-4324-9fd5-3d39400fc6a9"
      }
    },
    {
      "resource": {
        "resourceType": "CarePlan",
        "id": "e830a727-fa6b-4797-9072-3ef0f9f746c3",
        "status": "active",
        "intent": "plan",
        "title": "Treatment plan for atrial fibrillation",
        "description": "Comprehensive treatment plan including Cardiac Ablation, Medication Adjustment",
        "subject": {
          "reference": "Patient/b94bb6e2-5288-4400-aadf-da05747e031b",
          "display": "Sakura Chen"
        },
        "period": {
          "start": "2021-03-25"
        },
        "addresses": [
          {
            "reference": "Condition/5e96a7a3-2692-4324-9fd5-3d39400fc6a9",
            "display": "atrial fibrillation"
          }
        ],
        "author": [
          {
            "reference": "Practitioner/f6485958-d13b-4680-bd80-e325236fa1da",
            "display": "Dr. Sarah Johnson"
          }
        ]
      },
      "request": {
        "method": "PUT",
        "url": "CarePlan/e830a727-fa6b-4797-9072-3ef0f9f746c3"
      }
    },
    {
      "resource": {
        "resourceType": "Encounter",
        "id": "bee95742-3ca8-4d2e-9e2a-43e2f3f399df",
        "status": "finished",
        "class": {
          "system": "http://terminology.hl7.org/CodeSystem/v3-ActCode",
          "code": "IMP",
          "display": "Inpatient"
        },
        "type": [
          {
            "coding": [
              {
                "system": "http://snomed.info/sct",
                "code": "308646001",
                "display": "Cardiac Ablation Procedure"
              }
            ],
            "text": "Cardiac Ablation Procedure"
          }
        ],
        "subject": {
          "reference": "Patient/b94bb6e2-5288-4400-aadf-da05747e031b",
          "display": "Sakura Chen"
        },
        "participant": [
          {
            "individual": {
              "reference": "Practitioner/f6485958-d13b-4680-bd80-e325236fa1da",
              "display": "Dr. Sarah Johnson"
            }
          }
        ],
        "period": {
          "start": "2021-03-25"
        },
        "serviceProvider": {
          "reference": "Organization/1b9d8fe8-67ea-4b03-b3b1-2358e32c94cb",
          "display": "Comprehensive Cancer Center"
        },
        "reasonReference": [
          {
            "reference": "Condition/5e96a7a3-2692-4324-9fd5-3d39400fc6a9",
            "display": "atrial fibrillation"
          }
        ]
      },
      "request": {
        "method": "PUT",
        "url": "Encounter/bee95742-3ca8-4d2e-9e2a-43e2f3f399df"
      }
    },
    {
      "resource": {
        "resourceType": "Procedure",
        "id": "9d63b811-ffce-4523-8b32-16d668d4320a",
        "status": "completed",
        "code": {
          "coding": [
            {
              "system": "http://snomed.info/sct",
              "code": "387713003",
              "display": "Cardiac Ablation"
            }
          ],
          "text": "Cardiac Ablation"
        },
        "subject": {
          "reference": "Patient/b94bb6e2-5288-4400-aadf-da05747e031b",
          "display": "Sakura Chen"
        },
        "encounter": {
          "reference": "Encounter/bee95742-3ca8-4d2e-9e2a-43e2f3f399df"
        },
        "performedDateTime": "2021-03-25",
        "performer": [
          {
            "actor": {
              "reference": "Practitioner/f6485958-d13b-4680-bd80-e325236fa1da",
              "display": "Dr. Sarah Johnson"
            }
          }
        ],
        "reasonReference": [
          {
            "reference": "Condition/5e96a7a3-2692-4324-9fd5-3d39400fc6a9",
            "display": "atrial fibrillation"
          }
        ]
      },
      "request": {
        "method": "PUT",
        "url": "Procedure/9d63b811-ffce-4523-8b32-16d668d4320a"
      }
    },
    {
      "resource": {
        "resourceType": "MedicationAdministration",
        "id": "f42c5bc2-1eaf-495a-ad95-7bea400bdcef",
        "status": "completed",
        "medicationCodeableConcept": {
          "coding": [
            {
              "system": "http://www.nlm.nih.gov/research/umls/rxnorm",
              "code": "123456",
              "display": "Amiodarone"
            }
          ],
          "text": "Amiodarone"
        },
        "subject": {
          "reference": "Patient/b94bb6e2-5288-4400-aadf-da05747e031b",
          "display": "Sakura Chen"
        },
        "context": {
          "reference": "Encounter/bee95742-3ca8-4d2e-9e2a-43e2f3f399df"
        },
        "effectiveDateTime": "2021-03-25",
        "performer": [
          {
            "actor": {
              "reference": "Practitioner/f6485958-d13b-4680-bd80-e325236fa1da",
              "display": "Dr. Sarah Johnson"
            }
          }
        ],
        "reasonReference": [
          {
            "reference": "Condition/5e96a7a3-2692-4324-9fd5-3d39400fc6a9",
            "display": "atrial fibrillation"
          }
        ],
        "dosage": {
          "text": "As prescribed per protocol",
          "route": {
            "coding": [
              {
                "system": "http://snomed.info/sct",
                "code": "47625008",
                "display": "Intravenous route"
              }
            ]
          },
          "dose": {
            "value": 1,
            "unit": "dose",
            "system": "http://unitsofmeasure.org",
            "code": "1"
          }
        }
      },
      "request": {
        "method": "PUT",
        "url": "MedicationAdministration/f42c5bc2-1eaf-495a-ad95-7bea400bdcef"
      }
    },
    {
      "resource": {
        "resourceType": "MedicationAdministration",
        "id": "14da2982-1c17-43de-862c-a2c1f5efeda1",
        "status": "completed",
        "medicationCodeableConcept": {
          "coding": [
            {
              "system": "http://www.nlm.nih.gov/research/umls/rxnorm",
              "code": "123456",
              "display": "Apixaban"
            }
          ],
          "text": "Apixaban"
        },
        "subject": {
          "reference": "Patient/b94bb6e2-5288-4400-aadf-da05747e031b",
          "display": "Sakura Chen"
        },
        "context": {
          "reference": "Encounter/bee95742-3ca8-4d2e-9e2a-43e2f3f399df"
        },
        "effectiveDateTime": "2021-03-25",
        "performer": [
          {
            "actor": {
              "reference": "Practitioner/f6485958-d13b-4680-bd80-e325236fa1da",
              "display": "Dr. Sarah Johnson"
            }
          }
        ],
        "reasonReference": [
          {
            "reference": "Condition/5e96a7a3-2692-4324-9fd5-3d39400fc6a9",
            "display": "atrial fibrillation"
          }
        ],
        "dosage": {
          "text": "As prescribed per protocol",
          "route": {
            "coding": [
              {
                "system": "http://snomed.info/sct",
                "code": "47625008",
                "display": "Intravenous route"
              }
            ]
          },
          "dose": {
            "value": 1,
            "unit": "dose",
            "system": "http://unitsofmeasure.org",
            "code": "1"
          }
        }
      },
      "request": {
        "method": "PUT",
        "url": "MedicationAdministration/14da2982-1c17-43de-862c-a2c1f5efeda1"
      }
    },
    {
      "resource": {
        "resourceType": "Encounter",
        "id": "5cb614db-5d4a-4be3-87eb-a26416997888",
        "status": "finished",
        "class": {
          "system": "http://terminology.hl7.org/CodeSystem/v3-ActCode",
          "code": "AMB",
          "display": "Ambulatory"
        },
        "type": [
          {
            "coding": [
              {
                "system": "http://snomed.info/sct",
                "code": "308646001",
                "display": "Follow-up Post Ablation"
              }
            ],
            "text": "Follow-up Post Ablation"
          }
        ],
        "subject": {
          "reference": "Patient/b94bb6e2-5288-4400-aadf-da05747e031b",
          "display": "Sakura Chen"
        },
        "participant": [
          {
            "individual": {
              "reference": "Practitioner/f6485958-d13b-4680-bd80-e325236fa1da",
              "display": "Dr. Sarah Johnson"
            }
          }
        ],
        "period": {
          "start": "2021-04-05"
        },
        "serviceProvider": {
          "reference": "Organization/1b9d8fe8-67ea-4b03-b3b1-2358e32c94cb",
          "display": "Comprehensive Cancer Center"
        },
        "reasonReference": [
          {
            "reference": "Condition/5e96a7a3-2692-4324-9fd5-3d39400fc6a9",
            "display": "atrial fibrillation"
          }
        ]
      },
      "request": {
        "method": "PUT",
        "url": "Encounter/5cb614db-5d4a-4be3-87eb-a26416997888"
      }
    },
    {
      "resource": {
        "resourceType": "Procedure",
        "id": "5730ab11-a11d-4800-b7c0-c8e95e0cf45b",
        "status": "completed",
        "code": {
          "coding": [
            {
              "system": "http://snomed.info/sct",
              "code": "387713003",
              "display": "ECG"
            }
          ],
          "text": "ECG"
        },
        "subject": {
          "reference": "Patient/b94bb6e2-5288-4400-aadf-da05747e031b",
          "display": "Sakura Chen"
        },
        "encounter": {
          "reference": "Encounter/5cb614db-5d4a-4be3-87eb-a26416997888"
        },
        "performedDateTime": "2021-04-05",
        "performer": [
          {
            "actor": {
              "reference": "Practitioner/f6485958-d13b-4680-bd80-e325236fa1da",
              "display": "Dr. Sarah Johnson"
            }
          }
        ],
        "reasonReference": [
          {
            "reference": "Condition/5e96a7a3-2692-4324-9fd5-3d39400fc6a9",
            "display": "atrial fibrillation"
          }
        ]
      },
      "request": {
        "method": "PUT",
        "url": "Procedure/5730ab11-a11d-4800-b7c0-c8e95e0cf45b"
      }
    },
    {
      "resource": {
        "resourceType": "MedicationAdministration",
        "id": "eae01390-d1ec-46db-8346-ceeca627cd23",
        "status": "completed",
        "medicationCodeableConcept": {
          "coding": [
            {
              "system": "http://www.nlm.nih.gov/research/umls/rxnorm",
              "code": "123456",
              "display": "Apixaban"
            }
          ],
          "text": "Apixaban"
        },
        "subject": {
          "reference": "Patient/b94bb6e2-5288-4400-aadf-da05747e031b",
          "display": "Sakura Chen"
        },
        "context": {
          "reference": "Encounter/5cb614db-5d4a-4be3-87eb-a26416997888"
        },
        "effectiveDateTime": "2021-04-05",
        "performer": [
          {
            "actor": {
              "reference": "Practitioner/f6485958-d13b-4680-bd80-e325236fa1da",
              "display": "Dr. Sarah Johnson"
            }
          }
        ],
        "reasonReference": [
          {
            "reference": "Condition/5e96a7a3-2692-4324-9fd5-3d39400fc6a9",
            "display": "atrial fibrillation"
          }
        ],
        "dosage": {
          "text": "As prescribed per protocol",
          "route": {
            "coding": [
              {
                "system": "http://snomed.info/sct",
                "code": "47625008",
                "display": "Intravenous route"
              }
            ]
          },
          "dose": {
            "value": 1,
            "unit": "dose",
            "system": "http://unitsofmeasure.org",
            "code": "1"
          }
        }
      },
      "request": {
        "method": "PUT",
        "url": "MedicationAdministration/eae01390-d1ec-46db-8346-ceeca627cd23"
      }
    },
    {
      "resource": {
        "resourceType": "Encounter",
        "id": "89763eca-236f-4a29-b02c-1f77fc09552b",
        "status": "finished",
        "class": {
          "system": "http://terminology.hl7.org/CodeSystem/v3-ActCode",
          "code": "IMP",
          "display": "Inpatient"
        },
        "type": [
          {
            "coding": [
              {
                "system": "http://snomed.info/sct",
                "code": "308646001",
                "display": "Complication Monitoring"
              }
            ],
            "text": "Complication Monitoring"
          }
        ],
        "subject": {
          "reference": "Patient/b94bb6e2-5288-4400-aadf-da05747e031b",
          "display": "Sakura Chen"
        },
        "participant": [
          {
            "individual": {
              "reference": "Practitioner/f6485958-d13b-4680-bd80-e325236fa1da",
              "display": "Dr. Sarah Johnson"
            }
          }
        ],
        "period": {
          "start": "2021-04-08"
        },
        "serviceProvider": {
          "reference": "Organization/1b9d8fe8-67ea-4b03-b3b1-2358e32c94cb",
          "display": "Comprehensive Cancer Center"
        },
        "reasonReference": [
          {
            "reference": "Condition/5e96a7a3-2692-4324-9fd5-3d39400fc6a9",
            "display": "atrial fibrillation"
          }
        ]
      },
      "request": {
        "method": "PUT",
        "url": "Encounter/89763eca-236f-4a29-b02c-1f77fc09552b"
      }
    },
    {
      "resource": {
        "resourceType": "Procedure",
        "id": "536ca4a1-3d4e-4599-b138-47fbdc5b7787",
        "status": "completed",
        "code": {
          "coding": [
            {
              "system": "http://snomed.info/sct",
              "code": "387713003",
              "display": "Echocardiogram"
            }
          ],
          "text": "Echocardiogram"
        },
        "subject": {
          "reference": "Patient/b94bb6e2-5288-4400-aadf-da05747e031b",
          "display": "Sakura Chen"
        },
        "encounter": {
          "reference": "Encounter/89763eca-236f-4a29-b02c-1f77fc09552b"
        },
        "performedDateTime": "2021-04-08",
        "performer": [
          {
            "actor": {
              "reference": "Practitioner/f6485958-d13b-4680-bd80-e325236fa1da",
              "display": "Dr. Sarah Johnson"
            }
          }
        ],
        "reasonReference": [
          {
            "reference": "Condition/5e96a7a3-2692-4324-9fd5-3d39400fc6a9",
            "display": "atrial fibrillation"
          }
        ]
      },
      "request": {
        "method": "PUT",
        "url": "Procedure/536ca4a1-3d4e-4599-b138-47fbdc5b7787"
      }
    },
    {
      "resource": {
        "resourceType": "MedicationAdministration",
        "id": "15a6cf6b-84ee-48d4-9b08-9657c04f33f8",
        "status": "completed",
        "medicationCodeableConcept": {
          "coding": [
            {
              "system": "http://www.nlm.nih.gov/research/umls/rxnorm",
              "code": "123456",
              "display": "Amiodarone"
            }
          ],
          "text": "Amiodarone"
        },
        "subject": {
          "reference": "Patient/b94bb6e2-5288-4400-aadf-da05747e031b",
          "display": "Sakura Chen"
        },
        "context": {
          "reference": "Encounter/89763eca-236f-4a29-b02c-1f77fc09552b"
        },
        "effectiveDateTime": "2021-04-08",
        "performer": [
          {
            "actor": {
              "reference": "Practitioner/f6485958-d13b-4680-bd80-e325236fa1da",
              "display": "Dr. Sarah Johnson"
            }
          }
        ],
        "reasonReference": [
          {
            "reference": "Condition/5e96a7a3-2692-4324-9fd5-3d39400fc6a9",
            "display": "atrial fibrillation"
          }
        ],
        "dosage": {
          "text": "As prescribed per protocol",
          "route": {
            "coding": [
              {
                "system": "http://snomed.info/sct",
                "code": "47625008",
                "display": "Intravenous route"
              }
            ]
          },
          "dose": {
            "value": 1,
            "unit": "dose",
            "system": "http://unitsofmeasure.org",
            "code": "1"
          }
        }
      },
      "request": {
        "method": "PUT",
        "url": "MedicationAdministration/15a6cf6b-84ee-48d4-9b08-9657c04f33f8"
      }
    },
    {
      "resource": {
        "resourceType": "Encounter",
        "id": "9658a9bb-99b4-4872-9c47-0ab25f65cff5",
        "status": "finished",
        "class": {
          "system": "http://terminology.hl7.org/CodeSystem/v3-ActCode",
          "code": "AMB",
          "display": "Ambulatory"
        },
        "type": [
          {
            "coding": [
              {
                "system": "http://snomed.info/sct",
                "code": "308646001",
                "display": "Medication Review"
              }
            ],
            "text": "Medication Review"
          }
        ],
        "subject": {
          "reference": "Patient/b94bb6e2-5288-4400-aadf-da05747e031b",
          "display": "Sakura Chen"
        },
        "participant": [
          {
            "individual": {
              "reference": "Practitioner/f6485958-d13b-4680-bd80-e325236fa1da",
              "display": "Dr. Sarah Johnson"
            }
          }
        ],
        "period": {
          "start": "2021-04-15"
        },
        "serviceProvider": {
          "reference": "Organization/1b9d8fe8-67ea-4b03-b3b1-2358e32c94cb",
          "display": "Comprehensive Cancer Center"
        },
        "reasonReference": [
          {
            "reference": "Condition/5e96a7a3-2692-4324-9fd5-3d39400fc6a9",
            "display": "atrial fibrillation"
          }
        ]
      },
      "request": {
        "method": "PUT",
        "url": "Encounter/9658a9bb-99b4-4872-9c47-0ab25f65cff5"
      }
    },
    {
      "resource": {
        "resourceType": "Procedure",
        "id": "90c25fd2-f4e7-46bc-aa78-2c9bc2978ed3",
        "status": "completed",
        "code": {
          "coding": [
            {
              "system": "http://snomed.info/sct",
              "code": "387713003",
              "display": "Blood Tests"
            }
          ],
          "text": "Blood Tests"
        },
        "subject": {
          "reference": "Patient/b94bb6e2-5288-4400-aadf-da05747e031b",
          "display": "Sakura Chen"
        },
        "encounter": {
          "reference": "Encounter/9658a9bb-99b4-4872-9c47-0ab25f65cff5"
        },
        "performedDateTime": "2021-04-15",
        "performer": [
          {
            "actor": {
              "reference": "Practitioner/f6485958-d13b-4680-bd80-e325236fa1da",
              "display": "Dr. Sarah Johnson"
            }
          }
        ],
        "reasonReference": [
          {
            "reference": "Condition/5e96a7a3-2692-4324-9fd5-3d39400fc6a9",
            "display": "atrial fibrillation"
          }
        ]
      },
      "request": {
        "method": "PUT",
        "url": "Procedure/90c25fd2-f4e7-46bc-aa78-2c9bc2978ed3"
      }
    },
    {
      "resource": {
        "resourceType": "MedicationAdministration",
        "id": "829602c1-d8fa-4b3d-9675-b5ccdbd2ed0d",
        "status": "completed",
        "medicationCodeableConcept": {
          "coding": [
            {
              "system": "http://www.nlm.nih.gov/research/umls/rxnorm",
              "code": "123456",
              "display": "Warfarin"
            }
          ],
          "text": "Warfarin"
        },
        "subject": {
          "reference": "Patient/b94bb6e2-5288-4400-aadf-da05747e031b",
          "display": "Sakura Chen"
        },
        "context": {
          "reference": "Encounter/9658a9bb-99b4-4872-9c47-0ab25f65cff5"
        },
        "effectiveDateTime": "2021-04-15",
        "performer": [
          {
            "actor": {
              "reference": "Practitioner/f6485958-d13b-4680-bd80-e325236fa1da",
              "display": "Dr. Sarah Johnson"
            }
          }
        ],
        "reasonReference": [
          {
            "reference": "Condition/5e96a7a3-2692-4324-9fd5-3d39400fc6a9",
            "display": "atrial fibrillation"
          }
        ],
        "dosage": {
          "text": "As prescribed per protocol",
          "route": {
            "coding": [
              {
                "system": "http://snomed.info/sct",
                "code": "47625008",
                "display": "Intravenous route"
              }
            ]
          },
          "dose": {
            "value": 1,
            "unit": "dose",
            "system": "http://unitsofmeasure.org",
            "code": "1"
          }
        }
      },
      "request": {
        "method": "PUT",
        "url": "MedicationAdministration/829602c1-d8fa-4b3d-9675-b5ccdbd2ed0d"
      }
    },
    {
      "resource": {
        "resourceType": "MedicationAdministration",
        "id": "fd00ff29-af75-442c-942c-b72b918edaf9",
        "status": "completed",
        "medicationCodeableConcept": {
          "coding": [
            {
              "system": "http://www.nlm.nih.gov/research/umls/rxnorm",
              "code": "123456",
              "display": "Digoxin"
            }
          ],
          "text": "Digoxin"
        },
        "subject": {
          "reference": "Patient/b94bb6e2-5288-4400-aadf-da05747e031b",
          "display": "Sakura Chen"
        },
        "context": {
          "reference": "Encounter/9658a9bb-99b4-4872-9c47-0ab25f65cff5"
        },
        "effectiveDateTime": "2021-04-15",
        "performer": [
          {
            "actor": {
              "reference": "Practitioner/f6485958-d13b-4680-bd80-e325236fa1da",
              "display": "Dr. Sarah Johnson"
            }
          }
        ],
        "reasonReference": [
          {
            "reference": "Condition/5e96a7a3-2692-4324-9fd5-3d39400fc6a9",
            "display": "atrial fibrillation"
          }
        ],
        "dosage": {
          "text": "As prescribed per protocol",
          "route": {
            "coding": [
              {
                "system": "http://snomed.info/sct",
                "code": "47625008",
                "display": "Intravenous route"
              }
            ]
          },
          "dose": {
            "value": 1,
            "unit": "dose",
            "system": "http://unitsofmeasure.org",
            "code": "1"
          }
        }
      },
      "request": {
        "method": "PUT",
        "url": "MedicationAdministration/fd00ff29-af75-442c-942c-b72b918edaf9"
      }
    },
    {
      "resource": {
        "resourceType": "Encounter",
        "id": "32adb87a-eb9f-4f2c-bf85-98a26bcf6c3f",
        "status": "finished",
        "class": {
          "system": "http://terminology.hl7.org/CodeSystem/v3-ActCode",
          "code": "AMB",
          "display": "Ambulatory"
        },
        "type": [
          {
            "coding": [
              {
                "system": "http://snomed.info/sct",
                "code": "308646001",
                "display": "Follow-up on Medication Adjustment"
              }
            ],
            "text": "Follow-up on Medication Adjustment"
          }
        ],
        "subject": {
          "reference": "Patient/b94bb6e2-5288-4400-aadf-da05747e031b",
          "display": "Sakura Chen"
        },
        "participant": [
          {
            "individual": {
              "reference": "Practitioner/f6485958-d13b-4680-bd80-e325236fa1da",
              "display": "Dr. Sarah Johnson"
            }
          }
        ],
        "period": {
          "start": "2021-05-05"
        },
        "serviceProvider": {
          "reference": "Organization/1b9d8fe8-67ea-4b03-b3b1-2358e32c94cb",
          "display": "Comprehensive Cancer Center"
        },
        "reasonReference": [
          {
            "reference": "Condition/5e96a7a3-2692-4324-9fd5-3d39400fc6a9",
            "display": "atrial fibrillation"
          }
        ]
      },
      "request": {
        "method": "PUT",
        "url": "Encounter/32adb87a-eb9f-4f2c-bf85-98a26bcf6c3f"
      }
    },
    {
      "resource": {
        "resourceType": "Procedure",
        "id": "6e49f677-b258-406c-95f9-3913d9654085",
        "status": "completed",
        "code": {
          "coding": [
            {
              "system": "http://snomed.info/sct",
              "code": "387713003",
              "display": "ECG"
            }
          ],
          "text": "ECG"
        },
        "subject": {
          "reference": "Patient/b94bb6e2-5288-4400-aadf-da05747e031b",
          "display": "Sakura Chen"
        },
        "encounter": {
          "reference": "Encounter/32adb87a-eb9f-4f2c-bf85-98a26bcf6c3f"
        },
        "performedDateTime": "2021-05-05",
        "performer": [
          {
            "actor": {
              "reference": "Practitioner/f6485958-d13b-4680-bd80-e325236fa1da",
              "display": "Dr. Sarah Johnson"
            }
          }
        ],
        "reasonReference": [
          {
            "reference": "Condition/5e96a7a3-2692-4324-9fd5-3d39400fc6a9",
            "display": "atrial fibrillation"
          }
        ]
      },
      "request": {
        "method": "PUT",
        "url": "Procedure/6e49f677-b258-406c-95f9-3913d9654085"
      }
    },
    {
      "resource": {
        "resourceType": "MedicationAdministration",
        "id": "af9a3ac1-25f0-4ff6-9b39-a2a3e85bffb9",
        "status": "completed",
        "medicationCodeableConcept": {
          "coding": [
            {
              "system": "http://www.nlm.nih.gov/research/umls/rxnorm",
              "code": "123456",
              "display": "Warfarin"
            }
          ],
          "text": "Warfarin"
        },
        "subject": {
          "reference": "Patient/b94bb6e2-5288-4400-aadf-da05747e031b",
          "display": "Sakura Chen"
        },
        "context": {
          "reference": "Encounter/32adb87a-eb9f-4f2c-bf85-98a26bcf6c3f"
        },
        "effectiveDateTime": "2021-05-05",
        "performer": [
          {
            "actor": {
              "reference": "Practitioner/f6485958-d13b-4680-bd80-e325236fa1da",
              "display": "Dr. Sarah Johnson"
            }
          }
        ],
        "reasonReference": [
          {
            "reference": "Condition/5e96a7a3-2692-4324-9fd5-3d39400fc6a9",
            "display": "atrial fibrillation"
          }
        ],
        "dosage": {
          "text": "As prescribed per protocol",
          "route": {
            "coding": [
              {
                "system": "http://snomed.info/sct",
                "code": "47625008",
                "display": "Intravenous route"
              }
            ]
          },
          "dose": {
            "value": 1,
            "unit": "dose",
            "system": "http://unitsofmeasure.org",
            "code": "1"
          }
        }
      },
      "request": {
        "method": "PUT",
        "url": "MedicationAdministration/af9a3ac1-25f0-4ff6-9b39-a2a3e85bffb9"
      }
    },
    {
      "resource": {
        "resourceType": "Encounter",
        "id": "c2601206-739f-44e9-88df-8c8dd5565811",
        "status": "finished",
        "class": {
          "system": "http://terminology.hl7.org/CodeSystem/v3-ActCode",
          "code": "AMB",
          "display": "Ambulatory"
        },
        "type": [
          {
            "coding": [
              {
                "system": "http://snomed.info/sct",
                "code": "308646001",
                "display": "Routine Follow-up"
              }
            ],
            "text": "Routine Follow-up"
          }
        ],
        "subject": {
          "reference": "Patient/b94bb6e2-5288-4400-aadf-da05747e031b",
          "display": "Sakura Chen"
        },
        "participant": [
          {
            "individual": {
              "reference": "Practitioner/f6485958-d13b-4680-bd80-e325236fa1da",
              "display": "Dr. Sarah Johnson"
            }
          }
        ],
        "period": {
          "start": "2021-05-15"
        },
        "serviceProvider": {
          "reference": "Organization/1b9d8fe8-67ea-4b03-b3b1-2358e32c94cb",
          "display": "Comprehensive Cancer Center"
        },
        "reasonReference": [
          {
            "reference": "Condition/5e96a7a3-2692-4324-9fd5-3d39400fc6a9",
            "display": "atrial fibrillation"
          }
        ]
      },
      "request": {
        "method": "PUT",
        "url": "Encounter/c2601206-739f-44e9-88df-8c8dd5565811"
      }
    },
    {
      "resource": {
        "resourceType": "Encounter",
        "id": "c11f4bd8-e6d8-4158-8156-909b4cd04d55",
        "status": "finished",
        "class": {
          "system": "http://terminology.hl7.org/CodeSystem/v3-ActCode",
          "code": "AMB",
          "display": "Ambulatory"
        },
        "type": [
          {
            "coding": [
              {
                "system": "http://snomed.info/sct",
                "code": "308646001",
                "display": "Final Follow-up"
              }
            ],
            "text": "Final Follow-up"
          }
        ],
        "subject": {
          "reference": "Patient/b94bb6e2-5288-4400-aadf-da05747e031b",
          "display": "Sakura Chen"
        },
        "participant": [
          {
            "individual": {
              "reference": "Practitioner/f6485958-d13b-4680-bd80-e325236fa1da",
              "display": "Dr. Sarah Johnson"
            }
          }
        ],
        "period": {
          "start": "2021-06-10"
        },
        "serviceProvider": {
          "reference": "Organization/1b9d8fe8-67ea-4b03-b3b1-2358e32c94cb",
          "display": "Comprehensive Cancer Center"
        },
        "reasonReference": [
          {
            "reference": "Condition/5e96a7a3-2692-4324-9fd5-3d39400fc6a9",
            "display": "atrial fibrillation"
          }
        ]
      },
      "request": {
        "method": "PUT",
        "url": "Encounter/c11f4bd8-e6d8-4158-8156-909b4cd04d55"
      }
    },
    {
      "resource": {
        "resourceType": "DiagnosticReport",
        "status": "final",
        "category": [
          {
            "coding": [
              {
                "system": "http://terminology.hl7.org/CodeSystem/v2-0074",
                "code": "RAD",
                "display": "Radiology"
              }
            ]
          }
        ],
        "code": {
          "coding": [
            {
              "system": "http://loinc.org",
              "code": "18748-4",
              "display": "Diagnostic imaging study"
            }
          ]
        },
        "subject": {
          "reference": "Patient/b94bb6e2-5288-4400-aadf-da05747e031b",
          "display": "Sakura Chen"
        },
        "effectiveDateTime": "2021-05-15",
        "performer": [
          {
            "reference": "Practitioner/f6485958-d13b-4680-bd80-e325236fa1da",
            "display": "Dr. Sarah Johnson"
          }
        ],
        "conclusion": "Patient shows improving status for atrial fibrillation. Sakura Chen, a 55-year-old Asian female, presented with severe atrial fibrillation. She underwent Cardiac Ablation followed by medication adjustment. The patient responded well to treatment with improving symptoms. Regular follow-ups were conducted to monitor her progress."
      },
      "request": {
        "method": "POST",
        "url": "DiagnosticReport"
      }
    },
    {
      "resource": {
        "resourceType": "Observation",
        "status": "final",
        "category": [
          {
            "coding": [
              {
                "system": "http://terminology.hl7.org/CodeSystem/observation-category",
                "code": "clinical",
                "display": "Clinical"
              }
            ]
          }
        ],
        "code": {
          "coding": [
            {
              "system": "http://loinc.org",
              "code": "11323-3",
              "display": "Health status"
            }
          ]
        },
        "subject": {
          "reference": "Patient/b94bb6e2-5288-4400-aadf-da05747e031b",
          "display": "Sakura Chen"
        },
        "valueString": "improving",
        "effectiveDateTime": "2021-05-15"
      },
      "request": {
        "method": "POST",
        "url": "Observation"
      }
    }
  ]
}