{
  "resourceType": "Bundle",
  "id": "80051972-cd47-4d13-831b-16efbda47bc5",
  "type": "transaction",
  "entry": [
    {
      "resource": {
        "resourceType": "Patient",
        "id": "940314a2-7dc9-4c0e-bf02-896d4a473430",
        "name": [
          {
            "use": "official",
            "family": "Patel",
            "given": [
              "Sakura"
            ]
          }
        ],
        "gender": "female",
        "birthDate": "1975-06-12",
        "address": [
          {
            "use": "home",
            "line": [
              "321 Magnolia Street"
            ],
            "city": "Seattle",
            "state": "WA",
            "postalCode": "98101",
            "country": "USA"
          }
        ],
        "telecom": [
          {
            "system": "phone",
            "value": "(206) 555-1234",
            "use": "home"
          },
          {
            "system": "email",
            "value": "sakura.patel@example.com",
            "use": "home"
          }
        ],
        "extension": [
          {
            "url": "http://hl7.org/fhir/us/core/StructureDefinition/us-core-ethnicity",
            "valueString": "Asian"
          }
        ]
      },
      "request": {
        "method": "PUT",
        "url": "Patient/940314a2-7dc9-4c0e-bf02-896d4a473430"
      }
    },
    {
      "resource": {
        "resourceType": "Practitioner",
        "id": "ed5be039-fb31-4420-84cf-e2ffd577b335",
        "name": [
          {
            "use": "official",
            "family": "Johnson",
            "given": [
              "Dr. Sarah"
            ],
            "prefix": [
              "Dr."
            ]
          }
        ],
        "qualification": [
          {
            "code": {
              "coding": [
                {
                  "system": "http://terminology.hl7.org/CodeSystem/v2-0360",
                  "code": "MD",
                  "display": "Doctor of Medicine"
                }
              ]
            }
          }
        ]
      },
      "request": {
        "method": "PUT",
        "url": "Practitioner/ed5be039-fb31-4420-84cf-e2ffd577b335"
      }
    },
    {
      "resource": {
        "resourceType": "Organization",
        "id": "17c824aa-7a65-4167-ad5e-4ff8da6dbf81",
        "name": "Comprehensive Cancer Center",
        "type": [
          {
            "coding": [
              {
                "system": "http://terminology.hl7.org/CodeSystem/organization-type",
                "code": "prov",
                "display": "Healthcare Provider"
              }
            ]
          }
        ]
      },
      "request": {
        "method": "PUT",
        "url": "Organization/17c824aa-7a65-4167-ad5e-4ff8da6dbf81"
      }
    },
    {
      "resource": {
        "resourceType": "Condition",
        "id": "25ca5db5-b9a4-4cbb-96f2-ef08b6e46c15",
        "clinicalStatus": {
          "coding": [
            {
              "system": "http://terminology.hl7.org/CodeSystem/condition-clinical",
              "code": "resolved",
              "display": "Resolved"
            }
          ]
        },
        "verificationStatus": {
          "coding": [
            {
              "system": "http://terminology.hl7.org/CodeSystem/condition-ver-status",
              "code": "confirmed",
              "display": "Confirmed"
            }
          ]
        },
        "code": {
          "coding": [
            {
              "system": "http://snomed.info/sct",
              "code": "24700007",
              "display": "multiple sclerosis"
            }
          ],
          "text": "multiple sclerosis"
        },
        "subject": {
          "reference": "Patient/940314a2-7dc9-4c0e-bf02-896d4a473430",
          "display": "Sakura Patel"
        },
        "onsetDateTime": "2010-03-15",
        "recordedDate": "2010-04-02"
      },
      "request": {
        "method": "PUT",
        "url": "Condition/25ca5db5-b9a4-4cbb-96f2-ef08b6e46c15"
      }
    },
    {
      "resource": {
        "resourceType": "CarePlan",
        "id": "507192bd-b59e-4918-9317-cdad7a4e53ae",
        "status": "active",
        "intent": "plan",
        "title": "Treatment plan for multiple sclerosis",
        "description": "Comprehensive treatment plan including Disease Modifying Therapy, Rehabilitation",
        "subject": {
          "reference": "Patient/940314a2-7dc9-4c0e-bf02-896d4a473430",
          "display": "Sakura Patel"
        },
        "period": {
          "start": "2010-04-15"
        },
        "addresses": [
          {
            "reference": "Condition/25ca5db5-b9a4-4cbb-96f2-ef08b6e46c15",
            "display": "multiple sclerosis"
          }
        ],
        "author": [
          {
            "reference": "Practitioner/ed5be039-fb31-4420-84cf-e2ffd577b335",
            "display": "Dr. Sarah Johnson"
          }
        ]
      },
      "request": {
        "method": "PUT",
        "url": "CarePlan/507192bd-b59e-4918-9317-cdad7a4e53ae"
      }
    },
    {
      "resource": {
        "resourceType": "Encounter",
        "id": "ec2412e1-3f97-4d8e-be14-e9259c7c0394",
        "status": "finished",
        "class": {
          "system": "http://terminology.hl7.org/CodeSystem/v3-ActCode",
          "code": "AMB",
          "display": "Ambulatory"
        },
        "type": [
          {
            "coding": [
              {
                "system": "http://snomed.info/sct",
                "code": "308646001",
                "display": "Start of Disease Modifying Therapy"
              }
            ],
            "text": "Start of Disease Modifying Therapy"
          }
        ],
        "subject": {
          "reference": "Patient/940314a2-7dc9-4c0e-bf02-896d4a473430",
          "display": "Sakura Patel"
        },
        "participant": [
          {
            "individual": {
              "reference": "Practitioner/ed5be039-fb31-4420-84cf-e2ffd577b335",
              "display": "Dr. Sarah Johnson"
            }
          }
        ],
        "period": {
          "start": "2010-04-15"
        },
        "serviceProvider": {
          "reference": "Organization/17c824aa-7a65-4167-ad5e-4ff8da6dbf81",
          "display": "Comprehensive Cancer Center"
        },
        "reasonReference": [
          {
            "reference": "Condition/25ca5db5-b9a4-4cbb-96f2-ef08b6e46c15",
            "display": "multiple sclerosis"
          }
        ]
      },
      "request": {
        "method": "PUT",
        "url": "Encounter/ec2412e1-3f97-4d8e-be14-e9259c7c0394"
      }
    },
    {
      "resource": {
        "resourceType": "Procedure",
        "id": "9ad9fbf2-0ba0-4589-b94e-8295cbf9c3e9",
        "status": "completed",
        "code": {
          "coding": [
            {
              "system": "http://snomed.info/sct",
              "code": "387713003",
              "display": "MRI Brain"
            }
          ],
          "text": "MRI Brain"
        },
        "subject": {
          "reference": "Patient/940314a2-7dc9-4c0e-bf02-896d4a473430",
          "display": "Sakura Patel"
        },
        "encounter": {
          "reference": "Encounter/ec2412e1-3f97-4d8e-be14-e9259c7c0394"
        },
        "performedDateTime": "2010-04-15",
        "performer": [
          {
            "actor": {
              "reference": "Practitioner/ed5be039-fb31-4420-84cf-e2ffd577b335",
              "display": "Dr. Sarah Johnson"
            }
          }
        ],
        "reasonReference": [
          {
            "reference": "Condition/25ca5db5-b9a4-4cbb-96f2-ef08b6e46c15",
            "display": "multiple sclerosis"
          }
        ]
      },
      "request": {
        "method": "PUT",
        "url": "Procedure/9ad9fbf2-0ba0-4589-b94e-8295cbf9c3e9"
      }
    },
    {
      "resource": {
        "resourceType": "MedicationAdministration",
        "id": "f04a501e-11bb-403f-991d-ee077ebe37dc",
        "status": "completed",
        "medicationCodeableConcept": {
          "coding": [
            {
              "system": "http://www.nlm.nih.gov/research/umls/rxnorm",
              "code": "123456",
              "display": "Interferon beta-1a"
            }
          ],
          "text": "Interferon beta-1a"
        },
        "subject": {
          "reference": "Patient/940314a2-7dc9-4c0e-bf02-896d4a473430",
          "display": "Sakura Patel"
        },
        "context": {
          "reference": "Encounter/ec2412e1-3f97-4d8e-be14-e9259c7c0394"
        },
        "effectiveDateTime": "2010-04-15",
        "performer": [
          {
            "actor": {
              "reference": "Practitioner/ed5be039-fb31-4420-84cf-e2ffd577b335",
              "display": "Dr. Sarah Johnson"
            }
          }
        ],
        "reasonReference": [
          {
            "reference": "Condition/25ca5db5-b9a4-4cbb-96f2-ef08b6e46c15",
            "display": "multiple sclerosis"
          }
        ],
        "dosage": {
          "text": "As prescribed per protocol",
          "route": {
            "coding": [
              {
                "system": "http://snomed.info/sct",
                "code": "47625008",
                "display": "Intravenous route"
              }
            ]
          },
          "dose": {
            "value": 1,
            "unit": "dose",
            "system": "http://unitsofmeasure.org",
            "code": "1"
          }
        }
      },
      "request": {
        "method": "PUT",
        "url": "MedicationAdministration/f04a501e-11bb-403f-991d-ee077ebe37dc"
      }
    },
    {
      "resource": {
        "resourceType": "MedicationAdministration",
        "id": "3511a9d2-0275-4bb2-bfac-df9aa164a9e8",
        "status": "completed",
        "medicationCodeableConcept": {
          "coding": [
            {
              "system": "http://www.nlm.nih.gov/research/umls/rxnorm",
              "code": "123456",
              "display": "Glatiramer acetate"
            }
          ],
          "text": "Glatiramer acetate"
        },
        "subject": {
          "reference": "Patient/940314a2-7dc9-4c0e-bf02-896d4a473430",
          "display": "Sakura Patel"
        },
        "context": {
          "reference": "Encounter/ec2412e1-3f97-4d8e-be14-e9259c7c0394"
        },
        "effectiveDateTime": "2010-04-15",
        "performer": [
          {
            "actor": {
              "reference": "Practitioner/ed5be039-fb31-4420-84cf-e2ffd577b335",
              "display": "Dr. Sarah Johnson"
            }
          }
        ],
        "reasonReference": [
          {
            "reference": "Condition/25ca5db5-b9a4-4cbb-96f2-ef08b6e46c15",
            "display": "multiple sclerosis"
          }
        ],
        "dosage": {
          "text": "As prescribed per protocol",
          "route": {
            "coding": [
              {
                "system": "http://snomed.info/sct",
                "code": "47625008",
                "display": "Intravenous route"
              }
            ]
          },
          "dose": {
            "value": 1,
            "unit": "dose",
            "system": "http://unitsofmeasure.org",
            "code": "1"
          }
        }
      },
      "request": {
        "method": "PUT",
        "url": "MedicationAdministration/3511a9d2-0275-4bb2-bfac-df9aa164a9e8"
      }
    },
    {
      "resource": {
        "resourceType": "Encounter",
        "id": "2f3a8b84-b3c9-4a40-b72a-28ff132c1173",
        "status": "finished",
        "class": {
          "system": "http://terminology.hl7.org/CodeSystem/v3-ActCode",
          "code": "AMB",
          "display": "Ambulatory"
        },
        "type": [
          {
            "coding": [
              {
                "system": "http://snomed.info/sct",
                "code": "308646001",
                "display": "Monitoring and Medication Adjustment"
              }
            ],
            "text": "Monitoring and Medication Adjustment"
          }
        ],
        "subject": {
          "reference": "Patient/940314a2-7dc9-4c0e-bf02-896d4a473430",
          "display": "Sakura Patel"
        },
        "participant": [
          {
            "individual": {
              "reference": "Practitioner/ed5be039-fb31-4420-84cf-e2ffd577b335",
              "display": "Dr. Sarah Johnson"
            }
          }
        ],
        "period": {
          "start": "2010-10-15"
        },
        "serviceProvider": {
          "reference": "Organization/17c824aa-7a65-4167-ad5e-4ff8da6dbf81",
          "display": "Comprehensive Cancer Center"
        },
        "reasonReference": [
          {
            "reference": "Condition/25ca5db5-b9a4-4cbb-96f2-ef08b6e46c15",
            "display": "multiple sclerosis"
          }
        ]
      },
      "request": {
        "method": "PUT",
        "url": "Encounter/2f3a8b84-b3c9-4a40-b72a-28ff132c1173"
      }
    },
    {
      "resource": {
        "resourceType": "Procedure",
        "id": "b336b33e-4f80-4bad-bc1d-11865ddf59c8",
        "status": "completed",
        "code": {
          "coding": [
            {
              "system": "http://snomed.info/sct",
              "code": "387713003",
              "display": "Neurological Examination"
            }
          ],
          "text": "Neurological Examination"
        },
        "subject": {
          "reference": "Patient/940314a2-7dc9-4c0e-bf02-896d4a473430",
          "display": "Sakura Patel"
        },
        "encounter": {
          "reference": "Encounter/2f3a8b84-b3c9-4a40-b72a-28ff132c1173"
        },
        "performedDateTime": "2010-10-15",
        "performer": [
          {
            "actor": {
              "reference": "Practitioner/ed5be039-fb31-4420-84cf-e2ffd577b335",
              "display": "Dr. Sarah Johnson"
            }
          }
        ],
        "reasonReference": [
          {
            "reference": "Condition/25ca5db5-b9a4-4cbb-96f2-ef08b6e46c15",
            "display": "multiple sclerosis"
          }
        ]
      },
      "request": {
        "method": "PUT",
        "url": "Procedure/b336b33e-4f80-4bad-bc1d-11865ddf59c8"
      }
    },
    {
      "resource": {
        "resourceType": "MedicationAdministration",
        "id": "9ed6f8f0-1ce8-40ce-b4a1-5fd35408e703",
        "status": "completed",
        "medicationCodeableConcept": {
          "coding": [
            {
              "system": "http://www.nlm.nih.gov/research/umls/rxnorm",
              "code": "123456",
              "display": "Interferon beta-1a"
            }
          ],
          "text": "Interferon beta-1a"
        },
        "subject": {
          "reference": "Patient/940314a2-7dc9-4c0e-bf02-896d4a473430",
          "display": "Sakura Patel"
        },
        "context": {
          "reference": "Encounter/2f3a8b84-b3c9-4a40-b72a-28ff132c1173"
        },
        "effectiveDateTime": "2010-10-15",
        "performer": [
          {
            "actor": {
              "reference": "Practitioner/ed5be039-fb31-4420-84cf-e2ffd577b335",
              "display": "Dr. Sarah Johnson"
            }
          }
        ],
        "reasonReference": [
          {
            "reference": "Condition/25ca5db5-b9a4-4cbb-96f2-ef08b6e46c15",
            "display": "multiple sclerosis"
          }
        ],
        "dosage": {
          "text": "As prescribed per protocol",
          "route": {
            "coding": [
              {
                "system": "http://snomed.info/sct",
                "code": "47625008",
                "display": "Intravenous route"
              }
            ]
          },
          "dose": {
            "value": 1,
            "unit": "dose",
            "system": "http://unitsofmeasure.org",
            "code": "1"
          }
        }
      },
      "request": {
        "method": "PUT",
        "url": "MedicationAdministration/9ed6f8f0-1ce8-40ce-b4a1-5fd35408e703"
      }
    },
    {
      "resource": {
        "resourceType": "Encounter",
        "id": "bd1011ee-d9f0-43a5-8351-9355b01c8421",
        "status": "finished",
        "class": {
          "system": "http://terminology.hl7.org/CodeSystem/v3-ActCode",
          "code": "AMB",
          "display": "Ambulatory"
        },
        "type": [
          {
            "coding": [
              {
                "system": "http://snomed.info/sct",
                "code": "308646001",
                "display": "Monitoring and Medication Adjustment"
              }
            ],
            "text": "Monitoring and Medication Adjustment"
          }
        ],
        "subject": {
          "reference": "Patient/940314a2-7dc9-4c0e-bf02-896d4a473430",
          "display": "Sakura Patel"
        },
        "participant": [
          {
            "individual": {
              "reference": "Practitioner/ed5be039-fb31-4420-84cf-e2ffd577b335",
              "display": "Dr. Sarah Johnson"
            }
          }
        ],
        "period": {
          "start": "2011-04-15"
        },
        "serviceProvider": {
          "reference": "Organization/17c824aa-7a65-4167-ad5e-4ff8da6dbf81",
          "display": "Comprehensive Cancer Center"
        },
        "reasonReference": [
          {
            "reference": "Condition/25ca5db5-b9a4-4cbb-96f2-ef08b6e46c15",
            "display": "multiple sclerosis"
          }
        ]
      },
      "request": {
        "method": "PUT",
        "url": "Encounter/bd1011ee-d9f0-43a5-8351-9355b01c8421"
      }
    },
    {
      "resource": {
        "resourceType": "Procedure",
        "id": "948c58af-3d54-43f4-a1d4-75ec53f5e646",
        "status": "completed",
        "code": {
          "coding": [
            {
              "system": "http://snomed.info/sct",
              "code": "387713003",
              "display": "Neurological Examination"
            }
          ],
          "text": "Neurological Examination"
        },
        "subject": {
          "reference": "Patient/940314a2-7dc9-4c0e-bf02-896d4a473430",
          "display": "Sakura Patel"
        },
        "encounter": {
          "reference": "Encounter/bd1011ee-d9f0-43a5-8351-9355b01c8421"
        },
        "performedDateTime": "2011-04-15",
        "performer": [
          {
            "actor": {
              "reference": "Practitioner/ed5be039-fb31-4420-84cf-e2ffd577b335",
              "display": "Dr. Sarah Johnson"
            }
          }
        ],
        "reasonReference": [
          {
            "reference": "Condition/25ca5db5-b9a4-4cbb-96f2-ef08b6e46c15",
            "display": "multiple sclerosis"
          }
        ]
      },
      "request": {
        "method": "PUT",
        "url": "Procedure/948c58af-3d54-43f4-a1d4-75ec53f5e646"
      }
    },
    {
      "resource": {
        "resourceType": "MedicationAdministration",
        "id": "d55bc510-d7bb-4828-b535-f858574f49e4",
        "status": "completed",
        "medicationCodeableConcept": {
          "coding": [
            {
              "system": "http://www.nlm.nih.gov/research/umls/rxnorm",
              "code": "123456",
              "display": "Glatiramer acetate"
            }
          ],
          "text": "Glatiramer acetate"
        },
        "subject": {
          "reference": "Patient/940314a2-7dc9-4c0e-bf02-896d4a473430",
          "display": "Sakura Patel"
        },
        "context": {
          "reference": "Encounter/bd1011ee-d9f0-43a5-8351-9355b01c8421"
        },
        "effectiveDateTime": "2011-04-15",
        "performer": [
          {
            "actor": {
              "reference": "Practitioner/ed5be039-fb31-4420-84cf-e2ffd577b335",
              "display": "Dr. Sarah Johnson"
            }
          }
        ],
        "reasonReference": [
          {
            "reference": "Condition/25ca5db5-b9a4-4cbb-96f2-ef08b6e46c15",
            "display": "multiple sclerosis"
          }
        ],
        "dosage": {
          "text": "As prescribed per protocol",
          "route": {
            "coding": [
              {
                "system": "http://snomed.info/sct",
                "code": "47625008",
                "display": "Intravenous route"
              }
            ]
          },
          "dose": {
            "value": 1,
            "unit": "dose",
            "system": "http://unitsofmeasure.org",
            "code": "1"
          }
        }
      },
      "request": {
        "method": "PUT",
        "url": "MedicationAdministration/d55bc510-d7bb-4828-b535-f858574f49e4"
      }
    },
    {
      "resource": {
        "resourceType": "Encounter",
        "id": "4ef64667-9361-43ca-b39a-f7314c3a380f",
        "status": "finished",
        "class": {
          "system": "http://terminology.hl7.org/CodeSystem/v3-ActCode",
          "code": "AMB",
          "display": "Ambulatory"
        },
        "type": [
          {
            "coding": [
              {
                "system": "http://snomed.info/sct",
                "code": "308646001",
                "display": "Physical Therapy"
              }
            ],
            "text": "Physical Therapy"
          }
        ],
        "subject": {
          "reference": "Patient/940314a2-7dc9-4c0e-bf02-896d4a473430",
          "display": "Sakura Patel"
        },
        "participant": [
          {
            "individual": {
              "reference": "Practitioner/ed5be039-fb31-4420-84cf-e2ffd577b335",
              "display": "Dr. Sarah Johnson"
            }
          }
        ],
        "period": {
          "start": "2011-05-01"
        },
        "serviceProvider": {
          "reference": "Organization/17c824aa-7a65-4167-ad5e-4ff8da6dbf81",
          "display": "Comprehensive Cancer Center"
        },
        "reasonReference": [
          {
            "reference": "Condition/25ca5db5-b9a4-4cbb-96f2-ef08b6e46c15",
            "display": "multiple sclerosis"
          }
        ]
      },
      "request": {
        "method": "PUT",
        "url": "Encounter/4ef64667-9361-43ca-b39a-f7314c3a380f"
      }
    },
    {
      "resource": {
        "resourceType": "Procedure",
        "id": "804dee49-e674-418a-a0d2-30d3999946fc",
        "status": "completed",
        "code": {
          "coding": [
            {
              "system": "http://snomed.info/sct",
              "code": "387713003",
              "display": "Physical Therapy Session"
            }
          ],
          "text": "Physical Therapy Session"
        },
        "subject": {
          "reference": "Patient/940314a2-7dc9-4c0e-bf02-896d4a473430",
          "display": "Sakura Patel"
        },
        "encounter": {
          "reference": "Encounter/4ef64667-9361-43ca-b39a-f7314c3a380f"
        },
        "performedDateTime": "2011-05-01",
        "performer": [
          {
            "actor": {
              "reference": "Practitioner/ed5be039-fb31-4420-84cf-e2ffd577b335",
              "display": "Dr. Sarah Johnson"
            }
          }
        ],
        "reasonReference": [
          {
            "reference": "Condition/25ca5db5-b9a4-4cbb-96f2-ef08b6e46c15",
            "display": "multiple sclerosis"
          }
        ]
      },
      "request": {
        "method": "PUT",
        "url": "Procedure/804dee49-e674-418a-a0d2-30d3999946fc"
      }
    },
    {
      "resource": {
        "resourceType": "MedicationAdministration",
        "id": "8b8d22eb-c4e1-422f-9a56-8ec8a2e648ea",
        "status": "completed",
        "medicationCodeableConcept": {
          "coding": [
            {
              "system": "http://www.nlm.nih.gov/research/umls/rxnorm",
              "code": "123456",
              "display": "Muscle Relaxants"
            }
          ],
          "text": "Muscle Relaxants"
        },
        "subject": {
          "reference": "Patient/940314a2-7dc9-4c0e-bf02-896d4a473430",
          "display": "Sakura Patel"
        },
        "context": {
          "reference": "Encounter/4ef64667-9361-43ca-b39a-f7314c3a380f"
        },
        "effectiveDateTime": "2011-05-01",
        "performer": [
          {
            "actor": {
              "reference": "Practitioner/ed5be039-fb31-4420-84cf-e2ffd577b335",
              "display": "Dr. Sarah Johnson"
            }
          }
        ],
        "reasonReference": [
          {
            "reference": "Condition/25ca5db5-b9a4-4cbb-96f2-ef08b6e46c15",
            "display": "multiple sclerosis"
          }
        ],
        "dosage": {
          "text": "As prescribed per protocol",
          "route": {
            "coding": [
              {
                "system": "http://snomed.info/sct",
                "code": "47625008",
                "display": "Intravenous route"
              }
            ]
          },
          "dose": {
            "value": 1,
            "unit": "dose",
            "system": "http://unitsofmeasure.org",
            "code": "1"
          }
        }
      },
      "request": {
        "method": "PUT",
        "url": "MedicationAdministration/8b8d22eb-c4e1-422f-9a56-8ec8a2e648ea"
      }
    },
    {
      "resource": {
        "resourceType": "Encounter",
        "id": "af8bbb36-9d76-4a66-9fc2-15f453a82cd1",
        "status": "finished",
        "class": {
          "system": "http://terminology.hl7.org/CodeSystem/v3-ActCode",
          "code": "AMB",
          "display": "Ambulatory"
        },
        "type": [
          {
            "coding": [
              {
                "system": "http://snomed.info/sct",
                "code": "308646001",
                "display": "Occupational Therapy"
              }
            ],
            "text": "Occupational Therapy"
          }
        ],
        "subject": {
          "reference": "Patient/940314a2-7dc9-4c0e-bf02-896d4a473430",
          "display": "Sakura Patel"
        },
        "participant": [
          {
            "individual": {
              "reference": "Practitioner/ed5be039-fb31-4420-84cf-e2ffd577b335",
              "display": "Dr. Sarah Johnson"
            }
          }
        ],
        "period": {
          "start": "2011-06-01"
        },
        "serviceProvider": {
          "reference": "Organization/17c824aa-7a65-4167-ad5e-4ff8da6dbf81",
          "display": "Comprehensive Cancer Center"
        },
        "reasonReference": [
          {
            "reference": "Condition/25ca5db5-b9a4-4cbb-96f2-ef08b6e46c15",
            "display": "multiple sclerosis"
          }
        ]
      },
      "request": {
        "method": "PUT",
        "url": "Encounter/af8bbb36-9d76-4a66-9fc2-15f453a82cd1"
      }
    },
    {
      "resource": {
        "resourceType": "Procedure",
        "id": "06854349-c0e5-4597-aa6b-9373f8db84dd",
        "status": "completed",
        "code": {
          "coding": [
            {
              "system": "http://snomed.info/sct",
              "code": "387713003",
              "display": "Occupational Therapy Session"
            }
          ],
          "text": "Occupational Therapy Session"
        },
        "subject": {
          "reference": "Patient/940314a2-7dc9-4c0e-bf02-896d4a473430",
          "display": "Sakura Patel"
        },
        "encounter": {
          "reference": "Encounter/af8bbb36-9d76-4a66-9fc2-15f453a82cd1"
        },
        "performedDateTime": "2011-06-01",
        "performer": [
          {
            "actor": {
              "reference": "Practitioner/ed5be039-fb31-4420-84cf-e2ffd577b335",
              "display": "Dr. Sarah Johnson"
            }
          }
        ],
        "reasonReference": [
          {
            "reference": "Condition/25ca5db5-b9a4-4cbb-96f2-ef08b6e46c15",
            "display": "multiple sclerosis"
          }
        ]
      },
      "request": {
        "method": "PUT",
        "url": "Procedure/06854349-c0e5-4597-aa6b-9373f8db84dd"
      }
    },
    {
      "resource": {
        "resourceType": "MedicationAdministration",
        "id": "96593392-1949-4bc2-a88c-195e5890fbc3",
        "status": "completed",
        "medicationCodeableConcept": {
          "coding": [
            {
              "system": "http://www.nlm.nih.gov/research/umls/rxnorm",
              "code": "123456",
              "display": "Pain Relievers"
            }
          ],
          "text": "Pain Relievers"
        },
        "subject": {
          "reference": "Patient/940314a2-7dc9-4c0e-bf02-896d4a473430",
          "display": "Sakura Patel"
        },
        "context": {
          "reference": "Encounter/af8bbb36-9d76-4a66-9fc2-15f453a82cd1"
        },
        "effectiveDateTime": "2011-06-01",
        "performer": [
          {
            "actor": {
              "reference": "Practitioner/ed5be039-fb31-4420-84cf-e2ffd577b335",
              "display": "Dr. Sarah Johnson"
            }
          }
        ],
        "reasonReference": [
          {
            "reference": "Condition/25ca5db5-b9a4-4cbb-96f2-ef08b6e46c15",
            "display": "multiple sclerosis"
          }
        ],
        "dosage": {
          "text": "As prescribed per protocol",
          "route": {
            "coding": [
              {
                "system": "http://snomed.info/sct",
                "code": "47625008",
                "display": "Intravenous route"
              }
            ]
          },
          "dose": {
            "value": 1,
            "unit": "dose",
            "system": "http://unitsofmeasure.org",
            "code": "1"
          }
        }
      },
      "request": {
        "method": "PUT",
        "url": "MedicationAdministration/96593392-1949-4bc2-a88c-195e5890fbc3"
      }
    },
    {
      "resource": {
        "resourceType": "Encounter",
        "id": "c856538c-caba-4f1b-a4c1-0b07162989ef",
        "status": "finished",
        "class": {
          "system": "http://terminology.hl7.org/CodeSystem/v3-ActCode",
          "code": "AMB",
          "display": "Ambulatory"
        },
        "type": [
          {
            "coding": [
              {
                "system": "http://snomed.info/sct",
                "code": "308646001",
                "display": "Follow-up and Monitoring"
              }
            ],
            "text": "Follow-up and Monitoring"
          }
        ],
        "subject": {
          "reference": "Patient/940314a2-7dc9-4c0e-bf02-896d4a473430",
          "display": "Sakura Patel"
        },
        "participant": [
          {
            "individual": {
              "reference": "Practitioner/ed5be039-fb31-4420-84cf-e2ffd577b335",
              "display": "Dr. Sarah Johnson"
            }
          }
        ],
        "period": {
          "start": "2011-07-15"
        },
        "serviceProvider": {
          "reference": "Organization/17c824aa-7a65-4167-ad5e-4ff8da6dbf81",
          "display": "Comprehensive Cancer Center"
        },
        "reasonReference": [
          {
            "reference": "Condition/25ca5db5-b9a4-4cbb-96f2-ef08b6e46c15",
            "display": "multiple sclerosis"
          }
        ]
      },
      "request": {
        "method": "PUT",
        "url": "Encounter/c856538c-caba-4f1b-a4c1-0b07162989ef"
      }
    },
    {
      "resource": {
        "resourceType": "Encounter",
        "id": "4ce1be49-b4e9-459a-8c7c-d8eeb16081f6",
        "status": "finished",
        "class": {
          "system": "http://terminology.hl7.org/CodeSystem/v3-ActCode",
          "code": "AMB",
          "display": "Ambulatory"
        },
        "type": [
          {
            "coding": [
              {
                "system": "http://snomed.info/sct",
                "code": "308646001",
                "display": "Follow-up and Monitoring"
              }
            ],
            "text": "Follow-up and Monitoring"
          }
        ],
        "subject": {
          "reference": "Patient/940314a2-7dc9-4c0e-bf02-896d4a473430",
          "display": "Sakura Patel"
        },
        "participant": [
          {
            "individual": {
              "reference": "Practitioner/ed5be039-fb31-4420-84cf-e2ffd577b335",
              "display": "Dr. Sarah Johnson"
            }
          }
        ],
        "period": {
          "start": "2011-10-15"
        },
        "serviceProvider": {
          "reference": "Organization/17c824aa-7a65-4167-ad5e-4ff8da6dbf81",
          "display": "Comprehensive Cancer Center"
        },
        "reasonReference": [
          {
            "reference": "Condition/25ca5db5-b9a4-4cbb-96f2-ef08b6e46c15",
            "display": "multiple sclerosis"
          }
        ]
      },
      "request": {
        "method": "PUT",
        "url": "Encounter/4ce1be49-b4e9-459a-8c7c-d8eeb16081f6"
      }
    },
    {
      "resource": {
        "resourceType": "DiagnosticReport",
        "status": "final",
        "category": [
          {
            "coding": [
              {
                "system": "http://terminology.hl7.org/CodeSystem/v2-0074",
                "code": "RAD",
                "display": "Radiology"
              }
            ]
          }
        ],
        "code": {
          "coding": [
            {
              "system": "http://loinc.org",
              "code": "18748-4",
              "display": "Diagnostic imaging study"
            }
          ]
        },
        "subject": {
          "reference": "Patient/940314a2-7dc9-4c0e-bf02-896d4a473430",
          "display": "Sakura Patel"
        },
        "effectiveDateTime": "2011-07-15",
        "performer": [
          {
            "reference": "Practitioner/ed5be039-fb31-4420-84cf-e2ffd577b335",
            "display": "Dr. Sarah Johnson"
          }
        ],
        "conclusion": "Patient shows improving status for multiple sclerosis. Patient responded well to Disease Modifying Therapy and Rehabilitation phases. Continual monitoring is recommended."
      },
      "request": {
        "method": "POST",
        "url": "DiagnosticReport"
      }
    },
    {
      "resource": {
        "resourceType": "Observation",
        "status": "final",
        "category": [
          {
            "coding": [
              {
                "system": "http://terminology.hl7.org/CodeSystem/observation-category",
                "code": "clinical",
                "display": "Clinical"
              }
            ]
          }
        ],
        "code": {
          "coding": [
            {
              "system": "http://loinc.org",
              "code": "11323-3",
              "display": "Health status"
            }
          ]
        },
        "subject": {
          "reference": "Patient/940314a2-7dc9-4c0e-bf02-896d4a473430",
          "display": "Sakura Patel"
        },
        "valueString": "improving",
        "effectiveDateTime": "2011-07-15"
      },
      "request": {
        "method": "POST",
        "url": "Observation"
      }
    }
  ]
}