{
  "resourceType": "Bundle",
  "id": "d678d3aa-cf75-4737-a7e0-a6c81f242b2a",
  "type": "transaction",
  "entry": [
    {
      "resource": {
        "resourceType": "Patient",
        "id": "50aea7e6-5e9c-4649-ae34-5cc5e78ab5c5",
        "name": [
          {
            "use": "official",
            "family": "Garcia",
            "given": [
              "Jasmine"
            ]
          }
        ],
        "gender": "female",
        "birthDate": "1965-09-12",
        "address": [
          {
            "use": "home",
            "line": [
              "789 Oak Street"
            ],
            "city": "Miami",
            "state": "FL",
            "postalCode": "33101",
            "country": "USA"
          }
        ],
        "telecom": [
          {
            "system": "phone",
            "value": "(305) 555-6789",
            "use": "home"
          },
          {
            "system": "email",
            "value": "jasmine.garcia@example.com",
            "use": "home"
          }
        ],
        "extension": [
          {
            "url": "http://hl7.org/fhir/us/core/StructureDefinition/us-core-ethnicity",
            "valueString": "Hispanic"
          }
        ]
      },
      "request": {
        "method": "PUT",
        "url": "Patient/50aea7e6-5e9c-4649-ae34-5cc5e78ab5c5"
      }
    },
    {
      "resource": {
        "resourceType": "Practitioner",
        "id": "581f1c6b-b1e1-493a-9c31-fc5604bfecc1",
        "name": [
          {
            "use": "official",
            "family": "Johnson",
            "given": [
              "Dr. Sarah"
            ],
            "prefix": [
              "Dr."
            ]
          }
        ],
        "qualification": [
          {
            "code": {
              "coding": [
                {
                  "system": "http://terminology.hl7.org/CodeSystem/v2-0360",
                  "code": "MD",
                  "display": "Doctor of Medicine"
                }
              ]
            }
          }
        ]
      },
      "request": {
        "method": "PUT",
        "url": "Practitioner/581f1c6b-b1e1-493a-9c31-fc5604bfecc1"
      }
    },
    {
      "resource": {
        "resourceType": "Organization",
        "id": "b41b5deb-1000-4735-aa6c-9c72306a3965",
        "name": "Comprehensive Cancer Center",
        "type": [
          {
            "coding": [
              {
                "system": "http://terminology.hl7.org/CodeSystem/organization-type",
                "code": "prov",
                "display": "Healthcare Provider"
              }
            ]
          }
        ]
      },
      "request": {
        "method": "PUT",
        "url": "Organization/b41b5deb-1000-4735-aa6c-9c72306a3965"
      }
    },
    {
      "resource": {
        "resourceType": "Condition",
        "id": "648aac69-ac73-4d93-a087-7681531bc8cf",
        "clinicalStatus": {
          "coding": [
            {
              "system": "http://terminology.hl7.org/CodeSystem/condition-clinical",
              "code": "resolved",
              "display": "Resolved"
            }
          ]
        },
        "verificationStatus": {
          "coding": [
            {
              "system": "http://terminology.hl7.org/CodeSystem/condition-ver-status",
              "code": "confirmed",
              "display": "Confirmed"
            }
          ]
        },
        "code": {
          "coding": [
            {
              "system": "http://snomed.info/sct",
              "code": "49436004",
              "display": "atrial fibrillation"
            }
          ],
          "text": "atrial fibrillation"
        },
        "subject": {
          "reference": "Patient/50aea7e6-5e9c-4649-ae34-5cc5e78ab5c5",
          "display": "Jasmine Garcia"
        },
        "onsetDateTime": "2021-03-05",
        "recordedDate": "2021-03-12"
      },
      "request": {
        "method": "PUT",
        "url": "Condition/648aac69-ac73-4d93-a087-7681531bc8cf"
      }
    },
    {
      "resource": {
        "resourceType": "CarePlan",
        "id": "90d41e7f-470d-42c5-abc6-75c834f2d893",
        "status": "active",
        "intent": "plan",
        "title": "Treatment plan for atrial fibrillation",
        "description": "Comprehensive treatment plan including Cardioversion, Ablation",
        "subject": {
          "reference": "Patient/50aea7e6-5e9c-4649-ae34-5cc5e78ab5c5",
          "display": "Jasmine Garcia"
        },
        "period": {
          "start": "2021-03-20"
        },
        "addresses": [
          {
            "reference": "Condition/648aac69-ac73-4d93-a087-7681531bc8cf",
            "display": "atrial fibrillation"
          }
        ],
        "author": [
          {
            "reference": "Practitioner/581f1c6b-b1e1-493a-9c31-fc5604bfecc1",
            "display": "Dr. Sarah Johnson"
          }
        ]
      },
      "request": {
        "method": "PUT",
        "url": "CarePlan/90d41e7f-470d-42c5-abc6-75c834f2d893"
      }
    },
    {
      "resource": {
        "resourceType": "Encounter",
        "id": "1b1d833d-8098-47d4-88b3-6bd56e0b78c8",
        "status": "finished",
        "class": {
          "system": "http://terminology.hl7.org/CodeSystem/v3-ActCode",
          "code": "AMB",
          "display": "Ambulatory"
        },
        "type": [
          {
            "coding": [
              {
                "system": "http://snomed.info/sct",
                "code": "308646001",
                "display": "Cardioversion procedure"
              }
            ],
            "text": "Cardioversion procedure"
          }
        ],
        "subject": {
          "reference": "Patient/50aea7e6-5e9c-4649-ae34-5cc5e78ab5c5",
          "display": "Jasmine Garcia"
        },
        "participant": [
          {
            "individual": {
              "reference": "Practitioner/581f1c6b-b1e1-493a-9c31-fc5604bfecc1",
              "display": "Dr. Sarah Johnson"
            }
          }
        ],
        "period": {
          "start": "2021-03-20"
        },
        "serviceProvider": {
          "reference": "Organization/b41b5deb-1000-4735-aa6c-9c72306a3965",
          "display": "Comprehensive Cancer Center"
        },
        "reasonReference": [
          {
            "reference": "Condition/648aac69-ac73-4d93-a087-7681531bc8cf",
            "display": "atrial fibrillation"
          }
        ]
      },
      "request": {
        "method": "PUT",
        "url": "Encounter/1b1d833d-8098-47d4-88b3-6bd56e0b78c8"
      }
    },
    {
      "resource": {
        "resourceType": "Procedure",
        "id": "6adb79b4-1c4c-4444-adb4-8a59e94d7a21",
        "status": "completed",
        "code": {
          "coding": [
            {
              "system": "http://snomed.info/sct",
              "code": "387713003",
              "display": "Cardioversion"
            }
          ],
          "text": "Cardioversion"
        },
        "subject": {
          "reference": "Patient/50aea7e6-5e9c-4649-ae34-5cc5e78ab5c5",
          "display": "Jasmine Garcia"
        },
        "encounter": {
          "reference": "Encounter/1b1d833d-8098-47d4-88b3-6bd56e0b78c8"
        },
        "performedDateTime": "2021-03-20",
        "performer": [
          {
            "actor": {
              "reference": "Practitioner/581f1c6b-b1e1-493a-9c31-fc5604bfecc1",
              "display": "Dr. Sarah Johnson"
            }
          }
        ],
        "reasonReference": [
          {
            "reference": "Condition/648aac69-ac73-4d93-a087-7681531bc8cf",
            "display": "atrial fibrillation"
          }
        ]
      },
      "request": {
        "method": "PUT",
        "url": "Procedure/6adb79b4-1c4c-4444-adb4-8a59e94d7a21"
      }
    },
    {
      "resource": {
        "resourceType": "MedicationAdministration",
        "id": "0cf266fc-7a3e-43f3-8a80-cf96a35053be",
        "status": "completed",
        "medicationCodeableConcept": {
          "coding": [
            {
              "system": "http://www.nlm.nih.gov/research/umls/rxnorm",
              "code": "123456",
              "display": "Amiodarone"
            }
          ],
          "text": "Amiodarone"
        },
        "subject": {
          "reference": "Patient/50aea7e6-5e9c-4649-ae34-5cc5e78ab5c5",
          "display": "Jasmine Garcia"
        },
        "context": {
          "reference": "Encounter/1b1d833d-8098-47d4-88b3-6bd56e0b78c8"
        },
        "effectiveDateTime": "2021-03-20",
        "performer": [
          {
            "actor": {
              "reference": "Practitioner/581f1c6b-b1e1-493a-9c31-fc5604bfecc1",
              "display": "Dr. Sarah Johnson"
            }
          }
        ],
        "reasonReference": [
          {
            "reference": "Condition/648aac69-ac73-4d93-a087-7681531bc8cf",
            "display": "atrial fibrillation"
          }
        ],
        "dosage": {
          "text": "As prescribed per protocol",
          "route": {
            "coding": [
              {
                "system": "http://snomed.info/sct",
                "code": "47625008",
                "display": "Intravenous route"
              }
            ]
          },
          "dose": {
            "value": 1,
            "unit": "dose",
            "system": "http://unitsofmeasure.org",
            "code": "1"
          }
        }
      },
      "request": {
        "method": "PUT",
        "url": "MedicationAdministration/0cf266fc-7a3e-43f3-8a80-cf96a35053be"
      }
    },
    {
      "resource": {
        "resourceType": "MedicationAdministration",
        "id": "cd51ac9d-ca62-415e-ac2c-60b22f3a6e78",
        "status": "completed",
        "medicationCodeableConcept": {
          "coding": [
            {
              "system": "http://www.nlm.nih.gov/research/umls/rxnorm",
              "code": "123456",
              "display": "Warfarin"
            }
          ],
          "text": "Warfarin"
        },
        "subject": {
          "reference": "Patient/50aea7e6-5e9c-4649-ae34-5cc5e78ab5c5",
          "display": "Jasmine Garcia"
        },
        "context": {
          "reference": "Encounter/1b1d833d-8098-47d4-88b3-6bd56e0b78c8"
        },
        "effectiveDateTime": "2021-03-20",
        "performer": [
          {
            "actor": {
              "reference": "Practitioner/581f1c6b-b1e1-493a-9c31-fc5604bfecc1",
              "display": "Dr. Sarah Johnson"
            }
          }
        ],
        "reasonReference": [
          {
            "reference": "Condition/648aac69-ac73-4d93-a087-7681531bc8cf",
            "display": "atrial fibrillation"
          }
        ],
        "dosage": {
          "text": "As prescribed per protocol",
          "route": {
            "coding": [
              {
                "system": "http://snomed.info/sct",
                "code": "47625008",
                "display": "Intravenous route"
              }
            ]
          },
          "dose": {
            "value": 1,
            "unit": "dose",
            "system": "http://unitsofmeasure.org",
            "code": "1"
          }
        }
      },
      "request": {
        "method": "PUT",
        "url": "MedicationAdministration/cd51ac9d-ca62-415e-ac2c-60b22f3a6e78"
      }
    },
    {
      "resource": {
        "resourceType": "Encounter",
        "id": "f1de536f-59bc-4d85-9776-6f02ffd9f0b3",
        "status": "finished",
        "class": {
          "system": "http://terminology.hl7.org/CodeSystem/v3-ActCode",
          "code": "AMB",
          "display": "Ambulatory"
        },
        "type": [
          {
            "coding": [
              {
                "system": "http://snomed.info/sct",
                "code": "308646001",
                "display": "Follow-up post Cardioversion"
              }
            ],
            "text": "Follow-up post Cardioversion"
          }
        ],
        "subject": {
          "reference": "Patient/50aea7e6-5e9c-4649-ae34-5cc5e78ab5c5",
          "display": "Jasmine Garcia"
        },
        "participant": [
          {
            "individual": {
              "reference": "Practitioner/581f1c6b-b1e1-493a-9c31-fc5604bfecc1",
              "display": "Dr. Sarah Johnson"
            }
          }
        ],
        "period": {
          "start": "2021-03-27"
        },
        "serviceProvider": {
          "reference": "Organization/b41b5deb-1000-4735-aa6c-9c72306a3965",
          "display": "Comprehensive Cancer Center"
        },
        "reasonReference": [
          {
            "reference": "Condition/648aac69-ac73-4d93-a087-7681531bc8cf",
            "display": "atrial fibrillation"
          }
        ]
      },
      "request": {
        "method": "PUT",
        "url": "Encounter/f1de536f-59bc-4d85-9776-6f02ffd9f0b3"
      }
    },
    {
      "resource": {
        "resourceType": "Procedure",
        "id": "a5899f9b-3440-48d7-ac7a-165619931979",
        "status": "completed",
        "code": {
          "coding": [
            {
              "system": "http://snomed.info/sct",
              "code": "387713003",
              "display": "EKG"
            }
          ],
          "text": "EKG"
        },
        "subject": {
          "reference": "Patient/50aea7e6-5e9c-4649-ae34-5cc5e78ab5c5",
          "display": "Jasmine Garcia"
        },
        "encounter": {
          "reference": "Encounter/f1de536f-59bc-4d85-9776-6f02ffd9f0b3"
        },
        "performedDateTime": "2021-03-27",
        "performer": [
          {
            "actor": {
              "reference": "Practitioner/581f1c6b-b1e1-493a-9c31-fc5604bfecc1",
              "display": "Dr. Sarah Johnson"
            }
          }
        ],
        "reasonReference": [
          {
            "reference": "Condition/648aac69-ac73-4d93-a087-7681531bc8cf",
            "display": "atrial fibrillation"
          }
        ]
      },
      "request": {
        "method": "PUT",
        "url": "Procedure/a5899f9b-3440-48d7-ac7a-165619931979"
      }
    },
    {
      "resource": {
        "resourceType": "MedicationAdministration",
        "id": "7ef1b047-0689-4ba0-9668-cc48a159ebcc",
        "status": "completed",
        "medicationCodeableConcept": {
          "coding": [
            {
              "system": "http://www.nlm.nih.gov/research/umls/rxnorm",
              "code": "123456",
              "display": "Amiodarone"
            }
          ],
          "text": "Amiodarone"
        },
        "subject": {
          "reference": "Patient/50aea7e6-5e9c-4649-ae34-5cc5e78ab5c5",
          "display": "Jasmine Garcia"
        },
        "context": {
          "reference": "Encounter/f1de536f-59bc-4d85-9776-6f02ffd9f0b3"
        },
        "effectiveDateTime": "2021-03-27",
        "performer": [
          {
            "actor": {
              "reference": "Practitioner/581f1c6b-b1e1-493a-9c31-fc5604bfecc1",
              "display": "Dr. Sarah Johnson"
            }
          }
        ],
        "reasonReference": [
          {
            "reference": "Condition/648aac69-ac73-4d93-a087-7681531bc8cf",
            "display": "atrial fibrillation"
          }
        ],
        "dosage": {
          "text": "As prescribed per protocol",
          "route": {
            "coding": [
              {
                "system": "http://snomed.info/sct",
                "code": "47625008",
                "display": "Intravenous route"
              }
            ]
          },
          "dose": {
            "value": 1,
            "unit": "dose",
            "system": "http://unitsofmeasure.org",
            "code": "1"
          }
        }
      },
      "request": {
        "method": "PUT",
        "url": "MedicationAdministration/7ef1b047-0689-4ba0-9668-cc48a159ebcc"
      }
    },
    {
      "resource": {
        "resourceType": "Encounter",
        "id": "fdf6f851-3cdd-4939-a76a-b253ff22c3e6",
        "status": "finished",
        "class": {
          "system": "http://terminology.hl7.org/CodeSystem/v3-ActCode",
          "code": "AMB",
          "display": "Ambulatory"
        },
        "type": [
          {
            "coding": [
              {
                "system": "http://snomed.info/sct",
                "code": "308646001",
                "display": "Medication adjustment"
              }
            ],
            "text": "Medication adjustment"
          }
        ],
        "subject": {
          "reference": "Patient/50aea7e6-5e9c-4649-ae34-5cc5e78ab5c5",
          "display": "Jasmine Garcia"
        },
        "participant": [
          {
            "individual": {
              "reference": "Practitioner/581f1c6b-b1e1-493a-9c31-fc5604bfecc1",
              "display": "Dr. Sarah Johnson"
            }
          }
        ],
        "period": {
          "start": "2021-04-03"
        },
        "serviceProvider": {
          "reference": "Organization/b41b5deb-1000-4735-aa6c-9c72306a3965",
          "display": "Comprehensive Cancer Center"
        },
        "reasonReference": [
          {
            "reference": "Condition/648aac69-ac73-4d93-a087-7681531bc8cf",
            "display": "atrial fibrillation"
          }
        ]
      },
      "request": {
        "method": "PUT",
        "url": "Encounter/fdf6f851-3cdd-4939-a76a-b253ff22c3e6"
      }
    },
    {
      "resource": {
        "resourceType": "Procedure",
        "id": "7eba5fea-cd45-4071-8a1f-472e6e0047fd",
        "status": "completed",
        "code": {
          "coding": [
            {
              "system": "http://snomed.info/sct",
              "code": "387713003",
              "display": "Blood tests"
            }
          ],
          "text": "Blood tests"
        },
        "subject": {
          "reference": "Patient/50aea7e6-5e9c-4649-ae34-5cc5e78ab5c5",
          "display": "Jasmine Garcia"
        },
        "encounter": {
          "reference": "Encounter/fdf6f851-3cdd-4939-a76a-b253ff22c3e6"
        },
        "performedDateTime": "2021-04-03",
        "performer": [
          {
            "actor": {
              "reference": "Practitioner/581f1c6b-b1e1-493a-9c31-fc5604bfecc1",
              "display": "Dr. Sarah Johnson"
            }
          }
        ],
        "reasonReference": [
          {
            "reference": "Condition/648aac69-ac73-4d93-a087-7681531bc8cf",
            "display": "atrial fibrillation"
          }
        ]
      },
      "request": {
        "method": "PUT",
        "url": "Procedure/7eba5fea-cd45-4071-8a1f-472e6e0047fd"
      }
    },
    {
      "resource": {
        "resourceType": "MedicationAdministration",
        "id": "689f1bad-ea62-48e7-91b8-309fa9847522",
        "status": "completed",
        "medicationCodeableConcept": {
          "coding": [
            {
              "system": "http://www.nlm.nih.gov/research/umls/rxnorm",
              "code": "123456",
              "display": "Dronedarone"
            }
          ],
          "text": "Dronedarone"
        },
        "subject": {
          "reference": "Patient/50aea7e6-5e9c-4649-ae34-5cc5e78ab5c5",
          "display": "Jasmine Garcia"
        },
        "context": {
          "reference": "Encounter/fdf6f851-3cdd-4939-a76a-b253ff22c3e6"
        },
        "effectiveDateTime": "2021-04-03",
        "performer": [
          {
            "actor": {
              "reference": "Practitioner/581f1c6b-b1e1-493a-9c31-fc5604bfecc1",
              "display": "Dr. Sarah Johnson"
            }
          }
        ],
        "reasonReference": [
          {
            "reference": "Condition/648aac69-ac73-4d93-a087-7681531bc8cf",
            "display": "atrial fibrillation"
          }
        ],
        "dosage": {
          "text": "As prescribed per protocol",
          "route": {
            "coding": [
              {
                "system": "http://snomed.info/sct",
                "code": "47625008",
                "display": "Intravenous route"
              }
            ]
          },
          "dose": {
            "value": 1,
            "unit": "dose",
            "system": "http://unitsofmeasure.org",
            "code": "1"
          }
        }
      },
      "request": {
        "method": "PUT",
        "url": "MedicationAdministration/689f1bad-ea62-48e7-91b8-309fa9847522"
      }
    },
    {
      "resource": {
        "resourceType": "MedicationAdministration",
        "id": "13ffdd2c-e577-43b5-a4f7-4a96e9b89e15",
        "status": "completed",
        "medicationCodeableConcept": {
          "coding": [
            {
              "system": "http://www.nlm.nih.gov/research/umls/rxnorm",
              "code": "123456",
              "display": "Apixaban"
            }
          ],
          "text": "Apixaban"
        },
        "subject": {
          "reference": "Patient/50aea7e6-5e9c-4649-ae34-5cc5e78ab5c5",
          "display": "Jasmine Garcia"
        },
        "context": {
          "reference": "Encounter/fdf6f851-3cdd-4939-a76a-b253ff22c3e6"
        },
        "effectiveDateTime": "2021-04-03",
        "performer": [
          {
            "actor": {
              "reference": "Practitioner/581f1c6b-b1e1-493a-9c31-fc5604bfecc1",
              "display": "Dr. Sarah Johnson"
            }
          }
        ],
        "reasonReference": [
          {
            "reference": "Condition/648aac69-ac73-4d93-a087-7681531bc8cf",
            "display": "atrial fibrillation"
          }
        ],
        "dosage": {
          "text": "As prescribed per protocol",
          "route": {
            "coding": [
              {
                "system": "http://snomed.info/sct",
                "code": "47625008",
                "display": "Intravenous route"
              }
            ]
          },
          "dose": {
            "value": 1,
            "unit": "dose",
            "system": "http://unitsofmeasure.org",
            "code": "1"
          }
        }
      },
      "request": {
        "method": "PUT",
        "url": "MedicationAdministration/13ffdd2c-e577-43b5-a4f7-4a96e9b89e15"
      }
    },
    {
      "resource": {
        "resourceType": "Encounter",
        "id": "204d9460-11cb-4183-aefe-7b9d25806bb7",
        "status": "finished",
        "class": {
          "system": "http://terminology.hl7.org/CodeSystem/v3-ActCode",
          "code": "AMB",
          "display": "Ambulatory"
        },
        "type": [
          {
            "coding": [
              {
                "system": "http://snomed.info/sct",
                "code": "308646001",
                "display": "Monitoring visit"
              }
            ],
            "text": "Monitoring visit"
          }
        ],
        "subject": {
          "reference": "Patient/50aea7e6-5e9c-4649-ae34-5cc5e78ab5c5",
          "display": "Jasmine Garcia"
        },
        "participant": [
          {
            "individual": {
              "reference": "Practitioner/581f1c6b-b1e1-493a-9c31-fc5604bfecc1",
              "display": "Dr. Sarah Johnson"
            }
          }
        ],
        "period": {
          "start": "2021-04-10"
        },
        "serviceProvider": {
          "reference": "Organization/b41b5deb-1000-4735-aa6c-9c72306a3965",
          "display": "Comprehensive Cancer Center"
        },
        "reasonReference": [
          {
            "reference": "Condition/648aac69-ac73-4d93-a087-7681531bc8cf",
            "display": "atrial fibrillation"
          }
        ]
      },
      "request": {
        "method": "PUT",
        "url": "Encounter/204d9460-11cb-4183-aefe-7b9d25806bb7"
      }
    },
    {
      "resource": {
        "resourceType": "Procedure",
        "id": "aa55ca6b-88b3-48bb-8ebc-04a82e116d52",
        "status": "completed",
        "code": {
          "coding": [
            {
              "system": "http://snomed.info/sct",
              "code": "387713003",
              "display": "EKG"
            }
          ],
          "text": "EKG"
        },
        "subject": {
          "reference": "Patient/50aea7e6-5e9c-4649-ae34-5cc5e78ab5c5",
          "display": "Jasmine Garcia"
        },
        "encounter": {
          "reference": "Encounter/204d9460-11cb-4183-aefe-7b9d25806bb7"
        },
        "performedDateTime": "2021-04-10",
        "performer": [
          {
            "actor": {
              "reference": "Practitioner/581f1c6b-b1e1-493a-9c31-fc5604bfecc1",
              "display": "Dr. Sarah Johnson"
            }
          }
        ],
        "reasonReference": [
          {
            "reference": "Condition/648aac69-ac73-4d93-a087-7681531bc8cf",
            "display": "atrial fibrillation"
          }
        ]
      },
      "request": {
        "method": "PUT",
        "url": "Procedure/aa55ca6b-88b3-48bb-8ebc-04a82e116d52"
      }
    },
    {
      "resource": {
        "resourceType": "MedicationAdministration",
        "id": "7f407f33-96ec-42cb-aa7a-1e9efe386aed",
        "status": "completed",
        "medicationCodeableConcept": {
          "coding": [
            {
              "system": "http://www.nlm.nih.gov/research/umls/rxnorm",
              "code": "123456",
              "display": "Dronedarone"
            }
          ],
          "text": "Dronedarone"
        },
        "subject": {
          "reference": "Patient/50aea7e6-5e9c-4649-ae34-5cc5e78ab5c5",
          "display": "Jasmine Garcia"
        },
        "context": {
          "reference": "Encounter/204d9460-11cb-4183-aefe-7b9d25806bb7"
        },
        "effectiveDateTime": "2021-04-10",
        "performer": [
          {
            "actor": {
              "reference": "Practitioner/581f1c6b-b1e1-493a-9c31-fc5604bfecc1",
              "display": "Dr. Sarah Johnson"
            }
          }
        ],
        "reasonReference": [
          {
            "reference": "Condition/648aac69-ac73-4d93-a087-7681531bc8cf",
            "display": "atrial fibrillation"
          }
        ],
        "dosage": {
          "text": "As prescribed per protocol",
          "route": {
            "coding": [
              {
                "system": "http://snomed.info/sct",
                "code": "47625008",
                "display": "Intravenous route"
              }
            ]
          },
          "dose": {
            "value": 1,
            "unit": "dose",
            "system": "http://unitsofmeasure.org",
            "code": "1"
          }
        }
      },
      "request": {
        "method": "PUT",
        "url": "MedicationAdministration/7f407f33-96ec-42cb-aa7a-1e9efe386aed"
      }
    },
    {
      "resource": {
        "resourceType": "Encounter",
        "id": "1055c37b-b739-478c-a124-5362110ab7d4",
        "status": "finished",
        "class": {
          "system": "http://terminology.hl7.org/CodeSystem/v3-ActCode",
          "code": "IMP",
          "display": "Inpatient"
        },
        "type": [
          {
            "coding": [
              {
                "system": "http://snomed.info/sct",
                "code": "308646001",
                "display": "Ablation procedure"
              }
            ],
            "text": "Ablation procedure"
          }
        ],
        "subject": {
          "reference": "Patient/50aea7e6-5e9c-4649-ae34-5cc5e78ab5c5",
          "display": "Jasmine Garcia"
        },
        "participant": [
          {
            "individual": {
              "reference": "Practitioner/581f1c6b-b1e1-493a-9c31-fc5604bfecc1",
              "display": "Dr. Sarah Johnson"
            }
          }
        ],
        "period": {
          "start": "2021-05-01"
        },
        "serviceProvider": {
          "reference": "Organization/b41b5deb-1000-4735-aa6c-9c72306a3965",
          "display": "Comprehensive Cancer Center"
        },
        "reasonReference": [
          {
            "reference": "Condition/648aac69-ac73-4d93-a087-7681531bc8cf",
            "display": "atrial fibrillation"
          }
        ]
      },
      "request": {
        "method": "PUT",
        "url": "Encounter/1055c37b-b739-478c-a124-5362110ab7d4"
      }
    },
    {
      "resource": {
        "resourceType": "Procedure",
        "id": "552324e9-bc3c-4c0b-bb05-3d72ad1c7db6",
        "status": "completed",
        "code": {
          "coding": [
            {
              "system": "http://snomed.info/sct",
              "code": "387713003",
              "display": "Ablation"
            }
          ],
          "text": "Ablation"
        },
        "subject": {
          "reference": "Patient/50aea7e6-5e9c-4649-ae34-5cc5e78ab5c5",
          "display": "Jasmine Garcia"
        },
        "encounter": {
          "reference": "Encounter/1055c37b-b739-478c-a124-5362110ab7d4"
        },
        "performedDateTime": "2021-05-01",
        "performer": [
          {
            "actor": {
              "reference": "Practitioner/581f1c6b-b1e1-493a-9c31-fc5604bfecc1",
              "display": "Dr. Sarah Johnson"
            }
          }
        ],
        "reasonReference": [
          {
            "reference": "Condition/648aac69-ac73-4d93-a087-7681531bc8cf",
            "display": "atrial fibrillation"
          }
        ]
      },
      "request": {
        "method": "PUT",
        "url": "Procedure/552324e9-bc3c-4c0b-bb05-3d72ad1c7db6"
      }
    },
    {
      "resource": {
        "resourceType": "MedicationAdministration",
        "id": "9a93bf7f-e1ef-484d-b79d-dfd87cbd8c4c",
        "status": "completed",
        "medicationCodeableConcept": {
          "coding": [
            {
              "system": "http://www.nlm.nih.gov/research/umls/rxnorm",
              "code": "123456",
              "display": "Propafenone"
            }
          ],
          "text": "Propafenone"
        },
        "subject": {
          "reference": "Patient/50aea7e6-5e9c-4649-ae34-5cc5e78ab5c5",
          "display": "Jasmine Garcia"
        },
        "context": {
          "reference": "Encounter/1055c37b-b739-478c-a124-5362110ab7d4"
        },
        "effectiveDateTime": "2021-05-01",
        "performer": [
          {
            "actor": {
              "reference": "Practitioner/581f1c6b-b1e1-493a-9c31-fc5604bfecc1",
              "display": "Dr. Sarah Johnson"
            }
          }
        ],
        "reasonReference": [
          {
            "reference": "Condition/648aac69-ac73-4d93-a087-7681531bc8cf",
            "display": "atrial fibrillation"
          }
        ],
        "dosage": {
          "text": "As prescribed per protocol",
          "route": {
            "coding": [
              {
                "system": "http://snomed.info/sct",
                "code": "47625008",
                "display": "Intravenous route"
              }
            ]
          },
          "dose": {
            "value": 1,
            "unit": "dose",
            "system": "http://unitsofmeasure.org",
            "code": "1"
          }
        }
      },
      "request": {
        "method": "PUT",
        "url": "MedicationAdministration/9a93bf7f-e1ef-484d-b79d-dfd87cbd8c4c"
      }
    },
    {
      "resource": {
        "resourceType": "MedicationAdministration",
        "id": "6a076a4c-e656-4114-ac91-fe01c6044437",
        "status": "completed",
        "medicationCodeableConcept": {
          "coding": [
            {
              "system": "http://www.nlm.nih.gov/research/umls/rxnorm",
              "code": "123456",
              "display": "Rivaroxaban"
            }
          ],
          "text": "Rivaroxaban"
        },
        "subject": {
          "reference": "Patient/50aea7e6-5e9c-4649-ae34-5cc5e78ab5c5",
          "display": "Jasmine Garcia"
        },
        "context": {
          "reference": "Encounter/1055c37b-b739-478c-a124-5362110ab7d4"
        },
        "effectiveDateTime": "2021-05-01",
        "performer": [
          {
            "actor": {
              "reference": "Practitioner/581f1c6b-b1e1-493a-9c31-fc5604bfecc1",
              "display": "Dr. Sarah Johnson"
            }
          }
        ],
        "reasonReference": [
          {
            "reference": "Condition/648aac69-ac73-4d93-a087-7681531bc8cf",
            "display": "atrial fibrillation"
          }
        ],
        "dosage": {
          "text": "As prescribed per protocol",
          "route": {
            "coding": [
              {
                "system": "http://snomed.info/sct",
                "code": "47625008",
                "display": "Intravenous route"
              }
            ]
          },
          "dose": {
            "value": 1,
            "unit": "dose",
            "system": "http://unitsofmeasure.org",
            "code": "1"
          }
        }
      },
      "request": {
        "method": "PUT",
        "url": "MedicationAdministration/6a076a4c-e656-4114-ac91-fe01c6044437"
      }
    },
    {
      "resource": {
        "resourceType": "Encounter",
        "id": "00c88962-c090-4bd2-b1ad-3db91645c663",
        "status": "finished",
        "class": {
          "system": "http://terminology.hl7.org/CodeSystem/v3-ActCode",
          "code": "AMB",
          "display": "Ambulatory"
        },
        "type": [
          {
            "coding": [
              {
                "system": "http://snomed.info/sct",
                "code": "308646001",
                "display": "Follow-up post Ablation"
              }
            ],
            "text": "Follow-up post Ablation"
          }
        ],
        "subject": {
          "reference": "Patient/50aea7e6-5e9c-4649-ae34-5cc5e78ab5c5",
          "display": "Jasmine Garcia"
        },
        "participant": [
          {
            "individual": {
              "reference": "Practitioner/581f1c6b-b1e1-493a-9c31-fc5604bfecc1",
              "display": "Dr. Sarah Johnson"
            }
          }
        ],
        "period": {
          "start": "2021-05-15"
        },
        "serviceProvider": {
          "reference": "Organization/b41b5deb-1000-4735-aa6c-9c72306a3965",
          "display": "Comprehensive Cancer Center"
        },
        "reasonReference": [
          {
            "reference": "Condition/648aac69-ac73-4d93-a087-7681531bc8cf",
            "display": "atrial fibrillation"
          }
        ]
      },
      "request": {
        "method": "PUT",
        "url": "Encounter/00c88962-c090-4bd2-b1ad-3db91645c663"
      }
    },
    {
      "resource": {
        "resourceType": "Procedure",
        "id": "ce4f55f4-be81-419c-96b4-129548b70fbc",
        "status": "completed",
        "code": {
          "coding": [
            {
              "system": "http://snomed.info/sct",
              "code": "387713003",
              "display": "Echocardiogram"
            }
          ],
          "text": "Echocardiogram"
        },
        "subject": {
          "reference": "Patient/50aea7e6-5e9c-4649-ae34-5cc5e78ab5c5",
          "display": "Jasmine Garcia"
        },
        "encounter": {
          "reference": "Encounter/00c88962-c090-4bd2-b1ad-3db91645c663"
        },
        "performedDateTime": "2021-05-15",
        "performer": [
          {
            "actor": {
              "reference": "Practitioner/581f1c6b-b1e1-493a-9c31-fc5604bfecc1",
              "display": "Dr. Sarah Johnson"
            }
          }
        ],
        "reasonReference": [
          {
            "reference": "Condition/648aac69-ac73-4d93-a087-7681531bc8cf",
            "display": "atrial fibrillation"
          }
        ]
      },
      "request": {
        "method": "PUT",
        "url": "Procedure/ce4f55f4-be81-419c-96b4-129548b70fbc"
      }
    },
    {
      "resource": {
        "resourceType": "MedicationAdministration",
        "id": "3626b727-1bf6-4434-852c-4a5a19b61192",
        "status": "completed",
        "medicationCodeableConcept": {
          "coding": [
            {
              "system": "http://www.nlm.nih.gov/research/umls/rxnorm",
              "code": "123456",
              "display": "Propafenone"
            }
          ],
          "text": "Propafenone"
        },
        "subject": {
          "reference": "Patient/50aea7e6-5e9c-4649-ae34-5cc5e78ab5c5",
          "display": "Jasmine Garcia"
        },
        "context": {
          "reference": "Encounter/00c88962-c090-4bd2-b1ad-3db91645c663"
        },
        "effectiveDateTime": "2021-05-15",
        "performer": [
          {
            "actor": {
              "reference": "Practitioner/581f1c6b-b1e1-493a-9c31-fc5604bfecc1",
              "display": "Dr. Sarah Johnson"
            }
          }
        ],
        "reasonReference": [
          {
            "reference": "Condition/648aac69-ac73-4d93-a087-7681531bc8cf",
            "display": "atrial fibrillation"
          }
        ],
        "dosage": {
          "text": "As prescribed per protocol",
          "route": {
            "coding": [
              {
                "system": "http://snomed.info/sct",
                "code": "47625008",
                "display": "Intravenous route"
              }
            ]
          },
          "dose": {
            "value": 1,
            "unit": "dose",
            "system": "http://unitsofmeasure.org",
            "code": "1"
          }
        }
      },
      "request": {
        "method": "PUT",
        "url": "MedicationAdministration/3626b727-1bf6-4434-852c-4a5a19b61192"
      }
    },
    {
      "resource": {
        "resourceType": "Encounter",
        "id": "64688b16-5e83-44c0-b52f-edeed69b0fb3",
        "status": "finished",
        "class": {
          "system": "http://terminology.hl7.org/CodeSystem/v3-ActCode",
          "code": "AMB",
          "display": "Ambulatory"
        },
        "type": [
          {
            "coding": [
              {
                "system": "http://snomed.info/sct",
                "code": "308646001",
                "display": "Medication adjustment"
              }
            ],
            "text": "Medication adjustment"
          }
        ],
        "subject": {
          "reference": "Patient/50aea7e6-5e9c-4649-ae34-5cc5e78ab5c5",
          "display": "Jasmine Garcia"
        },
        "participant": [
          {
            "individual": {
              "reference": "Practitioner/581f1c6b-b1e1-493a-9c31-fc5604bfecc1",
              "display": "Dr. Sarah Johnson"
            }
          }
        ],
        "period": {
          "start": "2021-06-01"
        },
        "serviceProvider": {
          "reference": "Organization/b41b5deb-1000-4735-aa6c-9c72306a3965",
          "display": "Comprehensive Cancer Center"
        },
        "reasonReference": [
          {
            "reference": "Condition/648aac69-ac73-4d93-a087-7681531bc8cf",
            "display": "atrial fibrillation"
          }
        ]
      },
      "request": {
        "method": "PUT",
        "url": "Encounter/64688b16-5e83-44c0-b52f-edeed69b0fb3"
      }
    },
    {
      "resource": {
        "resourceType": "Procedure",
        "id": "18361eaa-4347-4793-a10b-eb6cee17ffaf",
        "status": "completed",
        "code": {
          "coding": [
            {
              "system": "http://snomed.info/sct",
              "code": "387713003",
              "display": "Blood tests"
            }
          ],
          "text": "Blood tests"
        },
        "subject": {
          "reference": "Patient/50aea7e6-5e9c-4649-ae34-5cc5e78ab5c5",
          "display": "Jasmine Garcia"
        },
        "encounter": {
          "reference": "Encounter/64688b16-5e83-44c0-b52f-edeed69b0fb3"
        },
        "performedDateTime": "2021-06-01",
        "performer": [
          {
            "actor": {
              "reference": "Practitioner/581f1c6b-b1e1-493a-9c31-fc5604bfecc1",
              "display": "Dr. Sarah Johnson"
            }
          }
        ],
        "reasonReference": [
          {
            "reference": "Condition/648aac69-ac73-4d93-a087-7681531bc8cf",
            "display": "atrial fibrillation"
          }
        ]
      },
      "request": {
        "method": "PUT",
        "url": "Procedure/18361eaa-4347-4793-a10b-eb6cee17ffaf"
      }
    },
    {
      "resource": {
        "resourceType": "MedicationAdministration",
        "id": "ff7428e6-d2b1-4488-b89b-2a15d0ecb3e3",
        "status": "completed",
        "medicationCodeableConcept": {
          "coding": [
            {
              "system": "http://www.nlm.nih.gov/research/umls/rxnorm",
              "code": "123456",
              "display": "Flecainide"
            }
          ],
          "text": "Flecainide"
        },
        "subject": {
          "reference": "Patient/50aea7e6-5e9c-4649-ae34-5cc5e78ab5c5",
          "display": "Jasmine Garcia"
        },
        "context": {
          "reference": "Encounter/64688b16-5e83-44c0-b52f-edeed69b0fb3"
        },
        "effectiveDateTime": "2021-06-01",
        "performer": [
          {
            "actor": {
              "reference": "Practitioner/581f1c6b-b1e1-493a-9c31-fc5604bfecc1",
              "display": "Dr. Sarah Johnson"
            }
          }
        ],
        "reasonReference": [
          {
            "reference": "Condition/648aac69-ac73-4d93-a087-7681531bc8cf",
            "display": "atrial fibrillation"
          }
        ],
        "dosage": {
          "text": "As prescribed per protocol",
          "route": {
            "coding": [
              {
                "system": "http://snomed.info/sct",
                "code": "47625008",
                "display": "Intravenous route"
              }
            ]
          },
          "dose": {
            "value": 1,
            "unit": "dose",
            "system": "http://unitsofmeasure.org",
            "code": "1"
          }
        }
      },
      "request": {
        "method": "PUT",
        "url": "MedicationAdministration/ff7428e6-d2b1-4488-b89b-2a15d0ecb3e3"
      }
    },
    {
      "resource": {
        "resourceType": "MedicationAdministration",
        "id": "a6948951-d344-4b87-8aa2-b18014167c86",
        "status": "completed",
        "medicationCodeableConcept": {
          "coding": [
            {
              "system": "http://www.nlm.nih.gov/research/umls/rxnorm",
              "code": "123456",
              "display": "Apixaban"
            }
          ],
          "text": "Apixaban"
        },
        "subject": {
          "reference": "Patient/50aea7e6-5e9c-4649-ae34-5cc5e78ab5c5",
          "display": "Jasmine Garcia"
        },
        "context": {
          "reference": "Encounter/64688b16-5e83-44c0-b52f-edeed69b0fb3"
        },
        "effectiveDateTime": "2021-06-01",
        "performer": [
          {
            "actor": {
              "reference": "Practitioner/581f1c6b-b1e1-493a-9c31-fc5604bfecc1",
              "display": "Dr. Sarah Johnson"
            }
          }
        ],
        "reasonReference": [
          {
            "reference": "Condition/648aac69-ac73-4d93-a087-7681531bc8cf",
            "display": "atrial fibrillation"
          }
        ],
        "dosage": {
          "text": "As prescribed per protocol",
          "route": {
            "coding": [
              {
                "system": "http://snomed.info/sct",
                "code": "47625008",
                "display": "Intravenous route"
              }
            ]
          },
          "dose": {
            "value": 1,
            "unit": "dose",
            "system": "http://unitsofmeasure.org",
            "code": "1"
          }
        }
      },
      "request": {
        "method": "PUT",
        "url": "MedicationAdministration/a6948951-d344-4b87-8aa2-b18014167c86"
      }
    },
    {
      "resource": {
        "resourceType": "Encounter",
        "id": "7f95765a-b23d-4041-9293-5305ec45dc13",
        "status": "finished",
        "class": {
          "system": "http://terminology.hl7.org/CodeSystem/v3-ActCode",
          "code": "AMB",
          "display": "Ambulatory"
        },
        "type": [
          {
            "coding": [
              {
                "system": "http://snomed.info/sct",
                "code": "308646001",
                "display": "Monitoring visit"
              }
            ],
            "text": "Monitoring visit"
          }
        ],
        "subject": {
          "reference": "Patient/50aea7e6-5e9c-4649-ae34-5cc5e78ab5c5",
          "display": "Jasmine Garcia"
        },
        "participant": [
          {
            "individual": {
              "reference": "Practitioner/581f1c6b-b1e1-493a-9c31-fc5604bfecc1",
              "display": "Dr. Sarah Johnson"
            }
          }
        ],
        "period": {
          "start": "2021-06-10"
        },
        "serviceProvider": {
          "reference": "Organization/b41b5deb-1000-4735-aa6c-9c72306a3965",
          "display": "Comprehensive Cancer Center"
        },
        "reasonReference": [
          {
            "reference": "Condition/648aac69-ac73-4d93-a087-7681531bc8cf",
            "display": "atrial fibrillation"
          }
        ]
      },
      "request": {
        "method": "PUT",
        "url": "Encounter/7f95765a-b23d-4041-9293-5305ec45dc13"
      }
    },
    {
      "resource": {
        "resourceType": "Procedure",
        "id": "b7bb7520-19c2-4130-8d6e-ed6a37f6b0e7",
        "status": "completed",
        "code": {
          "coding": [
            {
              "system": "http://snomed.info/sct",
              "code": "387713003",
              "display": "EKG"
            }
          ],
          "text": "EKG"
        },
        "subject": {
          "reference": "Patient/50aea7e6-5e9c-4649-ae34-5cc5e78ab5c5",
          "display": "Jasmine Garcia"
        },
        "encounter": {
          "reference": "Encounter/7f95765a-b23d-4041-9293-5305ec45dc13"
        },
        "performedDateTime": "2021-06-10",
        "performer": [
          {
            "actor": {
              "reference": "Practitioner/581f1c6b-b1e1-493a-9c31-fc5604bfecc1",
              "display": "Dr. Sarah Johnson"
            }
          }
        ],
        "reasonReference": [
          {
            "reference": "Condition/648aac69-ac73-4d93-a087-7681531bc8cf",
            "display": "atrial fibrillation"
          }
        ]
      },
      "request": {
        "method": "PUT",
        "url": "Procedure/b7bb7520-19c2-4130-8d6e-ed6a37f6b0e7"
      }
    },
    {
      "resource": {
        "resourceType": "MedicationAdministration",
        "id": "1a561304-57c1-4496-a398-c63b843f34c8",
        "status": "completed",
        "medicationCodeableConcept": {
          "coding": [
            {
              "system": "http://www.nlm.nih.gov/research/umls/rxnorm",
              "code": "123456",
              "display": "Flecainide"
            }
          ],
          "text": "Flecainide"
        },
        "subject": {
          "reference": "Patient/50aea7e6-5e9c-4649-ae34-5cc5e78ab5c5",
          "display": "Jasmine Garcia"
        },
        "context": {
          "reference": "Encounter/7f95765a-b23d-4041-9293-5305ec45dc13"
        },
        "effectiveDateTime": "2021-06-10",
        "performer": [
          {
            "actor": {
              "reference": "Practitioner/581f1c6b-b1e1-493a-9c31-fc5604bfecc1",
              "display": "Dr. Sarah Johnson"
            }
          }
        ],
        "reasonReference": [
          {
            "reference": "Condition/648aac69-ac73-4d93-a087-7681531bc8cf",
            "display": "atrial fibrillation"
          }
        ],
        "dosage": {
          "text": "As prescribed per protocol",
          "route": {
            "coding": [
              {
                "system": "http://snomed.info/sct",
                "code": "47625008",
                "display": "Intravenous route"
              }
            ]
          },
          "dose": {
            "value": 1,
            "unit": "dose",
            "system": "http://unitsofmeasure.org",
            "code": "1"
          }
        }
      },
      "request": {
        "method": "PUT",
        "url": "MedicationAdministration/1a561304-57c1-4496-a398-c63b843f34c8"
      }
    },
    {
      "resource": {
        "resourceType": "Encounter",
        "id": "99ae369a-a6c5-4c84-8f9d-f5383a315c6d",
        "status": "finished",
        "class": {
          "system": "http://terminology.hl7.org/CodeSystem/v3-ActCode",
          "code": "AMB",
          "display": "Ambulatory"
        },
        "type": [
          {
            "coding": [
              {
                "system": "http://snomed.info/sct",
                "code": "308646001",
                "display": "Routine follow-up"
              }
            ],
            "text": "Routine follow-up"
          }
        ],
        "subject": {
          "reference": "Patient/50aea7e6-5e9c-4649-ae34-5cc5e78ab5c5",
          "display": "Jasmine Garcia"
        },
        "participant": [
          {
            "individual": {
              "reference": "Practitioner/581f1c6b-b1e1-493a-9c31-fc5604bfecc1",
              "display": "Dr. Sarah Johnson"
            }
          }
        ],
        "period": {
          "start": "2021-06-20"
        },
        "serviceProvider": {
          "reference": "Organization/b41b5deb-1000-4735-aa6c-9c72306a3965",
          "display": "Comprehensive Cancer Center"
        },
        "reasonReference": [
          {
            "reference": "Condition/648aac69-ac73-4d93-a087-7681531bc8cf",
            "display": "atrial fibrillation"
          }
        ]
      },
      "request": {
        "method": "PUT",
        "url": "Encounter/99ae369a-a6c5-4c84-8f9d-f5383a315c6d"
      }
    },
    {
      "resource": {
        "resourceType": "Encounter",
        "id": "c0780f74-a19c-4983-a880-d1baf738b9b1",
        "status": "finished",
        "class": {
          "system": "http://terminology.hl7.org/CodeSystem/v3-ActCode",
          "code": "AMB",
          "display": "Ambulatory"
        },
        "type": [
          {
            "coding": [
              {
                "system": "http://snomed.info/sct",
                "code": "308646001",
                "display": "Medication refill"
              }
            ],
            "text": "Medication refill"
          }
        ],
        "subject": {
          "reference": "Patient/50aea7e6-5e9c-4649-ae34-5cc5e78ab5c5",
          "display": "Jasmine Garcia"
        },
        "participant": [
          {
            "individual": {
              "reference": "Practitioner/581f1c6b-b1e1-493a-9c31-fc5604bfecc1",
              "display": "Dr. Sarah Johnson"
            }
          }
        ],
        "period": {
          "start": "2021-07-05"
        },
        "serviceProvider": {
          "reference": "Organization/b41b5deb-1000-4735-aa6c-9c72306a3965",
          "display": "Comprehensive Cancer Center"
        },
        "reasonReference": [
          {
            "reference": "Condition/648aac69-ac73-4d93-a087-7681531bc8cf",
            "display": "atrial fibrillation"
          }
        ]
      },
      "request": {
        "method": "PUT",
        "url": "Encounter/c0780f74-a19c-4983-a880-d1baf738b9b1"
      }
    },
    {
      "resource": {
        "resourceType": "Encounter",
        "id": "0ab6e8c2-60c6-4469-be3a-99147ca397dc",
        "status": "finished",
        "class": {
          "system": "http://terminology.hl7.org/CodeSystem/v3-ActCode",
          "code": "AMB",
          "display": "Ambulatory"
        },
        "type": [
          {
            "coding": [
              {
                "system": "http://snomed.info/sct",
                "code": "308646001",
                "display": "Monitoring visit"
              }
            ],
            "text": "Monitoring visit"
          }
        ],
        "subject": {
          "reference": "Patient/50aea7e6-5e9c-4649-ae34-5cc5e78ab5c5",
          "display": "Jasmine Garcia"
        },
        "participant": [
          {
            "individual": {
              "reference": "Practitioner/581f1c6b-b1e1-493a-9c31-fc5604bfecc1",
              "display": "Dr. Sarah Johnson"
            }
          }
        ],
        "period": {
          "start": "2021-07-20"
        },
        "serviceProvider": {
          "reference": "Organization/b41b5deb-1000-4735-aa6c-9c72306a3965",
          "display": "Comprehensive Cancer Center"
        },
        "reasonReference": [
          {
            "reference": "Condition/648aac69-ac73-4d93-a087-7681531bc8cf",
            "display": "atrial fibrillation"
          }
        ]
      },
      "request": {
        "method": "PUT",
        "url": "Encounter/0ab6e8c2-60c6-4469-be3a-99147ca397dc"
      }
    },
    {
      "resource": {
        "resourceType": "Encounter",
        "id": "ffe85b03-f482-435f-a253-216fa05e6164",
        "status": "finished",
        "class": {
          "system": "http://terminology.hl7.org/CodeSystem/v3-ActCode",
          "code": "AMB",
          "display": "Ambulatory"
        },
        "type": [
          {
            "coding": [
              {
                "system": "http://snomed.info/sct",
                "code": "308646001",
                "display": "Final follow-up"
              }
            ],
            "text": "Final follow-up"
          }
        ],
        "subject": {
          "reference": "Patient/50aea7e6-5e9c-4649-ae34-5cc5e78ab5c5",
          "display": "Jasmine Garcia"
        },
        "participant": [
          {
            "individual": {
              "reference": "Practitioner/581f1c6b-b1e1-493a-9c31-fc5604bfecc1",
              "display": "Dr. Sarah Johnson"
            }
          }
        ],
        "period": {
          "start": "2021-08-10"
        },
        "serviceProvider": {
          "reference": "Organization/b41b5deb-1000-4735-aa6c-9c72306a3965",
          "display": "Comprehensive Cancer Center"
        },
        "reasonReference": [
          {
            "reference": "Condition/648aac69-ac73-4d93-a087-7681531bc8cf",
            "display": "atrial fibrillation"
          }
        ]
      },
      "request": {
        "method": "PUT",
        "url": "Encounter/ffe85b03-f482-435f-a253-216fa05e6164"
      }
    },
    {
      "resource": {
        "resourceType": "DiagnosticReport",
        "status": "final",
        "category": [
          {
            "coding": [
              {
                "system": "http://terminology.hl7.org/CodeSystem/v2-0074",
                "code": "RAD",
                "display": "Radiology"
              }
            ]
          }
        ],
        "code": {
          "coding": [
            {
              "system": "http://loinc.org",
              "code": "18748-4",
              "display": "Diagnostic imaging study"
            }
          ]
        },
        "subject": {
          "reference": "Patient/50aea7e6-5e9c-4649-ae34-5cc5e78ab5c5",
          "display": "Jasmine Garcia"
        },
        "effectiveDateTime": "2021-06-20",
        "performer": [
          {
            "reference": "Practitioner/581f1c6b-b1e1-493a-9c31-fc5604bfecc1",
            "display": "Dr. Sarah Johnson"
          }
        ],
        "conclusion": "Patient shows improving status for atrial fibrillation. Jasmine Garcia, a Hispanic female with moderate atrial fibrillation, underwent Cardioversion followed by Ablation procedures. She is currently improving with Apixaban as part of her treatment plan."
      },
      "request": {
        "method": "POST",
        "url": "DiagnosticReport"
      }
    },
    {
      "resource": {
        "resourceType": "Observation",
        "status": "final",
        "category": [
          {
            "coding": [
              {
                "system": "http://terminology.hl7.org/CodeSystem/observation-category",
                "code": "clinical",
                "display": "Clinical"
              }
            ]
          }
        ],
        "code": {
          "coding": [
            {
              "system": "http://loinc.org",
              "code": "11323-3",
              "display": "Health status"
            }
          ]
        },
        "subject": {
          "reference": "Patient/50aea7e6-5e9c-4649-ae34-5cc5e78ab5c5",
          "display": "Jasmine Garcia"
        },
        "valueString": "improving",
        "effectiveDateTime": "2021-06-20"
      },
      "request": {
        "method": "POST",
        "url": "Observation"
      }
    }
  ]
}