{
  "resourceType": "Bundle",
  "id": "6207ab42-a1ed-488a-ab29-30913cad1713",
  "type": "transaction",
  "entry": [
    {
      "resource": {
        "resourceType": "Patient",
        "id": "b7f1f093-5670-4caa-a33b-8070afa4d364",
        "name": [
          {
            "use": "official",
            "family": "Nguyen",
            "given": [
              "Sakura"
            ]
          }
        ],
        "gender": "female",
        "birthDate": "1975-08-12",
        "address": [
          {
            "use": "home",
            "line": [
              "789 Elm Street"
            ],
            "city": "San Francisco",
            "state": "CA",
            "postalCode": "94110",
            "country": "USA"
          }
        ],
        "telecom": [
          {
            "system": "phone",
            "value": "(415) 555-1234",
            "use": "home"
          },
          {
            "system": "email",
            "value": "s.nguyen@example.com",
            "use": "home"
          }
        ],
        "extension": [
          {
            "url": "http://hl7.org/fhir/us/core/StructureDefinition/us-core-ethnicity",
            "valueString": "Asian"
          }
        ]
      },
      "request": {
        "method": "PUT",
        "url": "Patient/b7f1f093-5670-4caa-a33b-8070afa4d364"
      }
    },
    {
      "resource": {
        "resourceType": "Practitioner",
        "id": "602b3ba4-fd36-4ed9-8573-1a7edea384cc",
        "name": [
          {
            "use": "official",
            "family": "Johnson",
            "given": [
              "Dr. Sarah"
            ],
            "prefix": [
              "Dr."
            ]
          }
        ],
        "qualification": [
          {
            "code": {
              "coding": [
                {
                  "system": "http://terminology.hl7.org/CodeSystem/v2-0360",
                  "code": "MD",
                  "display": "Doctor of Medicine"
                }
              ]
            }
          }
        ]
      },
      "request": {
        "method": "PUT",
        "url": "Practitioner/602b3ba4-fd36-4ed9-8573-1a7edea384cc"
      }
    },
    {
      "resource": {
        "resourceType": "Organization",
        "id": "b067b0b4-612a-4300-8f11-b1b525602c0c",
        "name": "Comprehensive Cancer Center",
        "type": [
          {
            "coding": [
              {
                "system": "http://terminology.hl7.org/CodeSystem/organization-type",
                "code": "prov",
                "display": "Healthcare Provider"
              }
            ]
          }
        ]
      },
      "request": {
        "method": "PUT",
        "url": "Organization/b067b0b4-612a-4300-8f11-b1b525602c0c"
      }
    },
    {
      "resource": {
        "resourceType": "Condition",
        "id": "27b2f45b-dd28-4a13-b3e8-9e535d8aff14",
        "clinicalStatus": {
          "coding": [
            {
              "system": "http://terminology.hl7.org/CodeSystem/condition-clinical",
              "code": "resolved",
              "display": "Resolved"
            }
          ]
        },
        "verificationStatus": {
          "coding": [
            {
              "system": "http://terminology.hl7.org/CodeSystem/condition-ver-status",
              "code": "confirmed",
              "display": "Confirmed"
            }
          ]
        },
        "code": {
          "coding": [
            {
              "system": "http://snomed.info/sct",
              "code": "370143000",
              "display": "major depressive disorder"
            }
          ],
          "text": "major depressive disorder"
        },
        "subject": {
          "reference": "Patient/b7f1f093-5670-4caa-a33b-8070afa4d364",
          "display": "Sakura Nguyen"
        },
        "onsetDateTime": "2021-01-15",
        "recordedDate": "2021-02-05"
      },
      "request": {
        "method": "PUT",
        "url": "Condition/27b2f45b-dd28-4a13-b3e8-9e535d8aff14"
      }
    },
    {
      "resource": {
        "resourceType": "CarePlan",
        "id": "717e598a-a829-481b-8a4a-f77217dedde5",
        "status": "active",
        "intent": "plan",
        "title": "Treatment plan for major depressive disorder",
        "description": "Comprehensive treatment plan including Cognitive Behavioral Therapy, Medication Management",
        "subject": {
          "reference": "Patient/b7f1f093-5670-4caa-a33b-8070afa4d364",
          "display": "Sakura Nguyen"
        },
        "period": {
          "start": "2021-02-15"
        },
        "addresses": [
          {
            "reference": "Condition/27b2f45b-dd28-4a13-b3e8-9e535d8aff14",
            "display": "major depressive disorder"
          }
        ],
        "author": [
          {
            "reference": "Practitioner/602b3ba4-fd36-4ed9-8573-1a7edea384cc",
            "display": "Dr. Sarah Johnson"
          }
        ]
      },
      "request": {
        "method": "PUT",
        "url": "CarePlan/717e598a-a829-481b-8a4a-f77217dedde5"
      }
    },
    {
      "resource": {
        "resourceType": "Encounter",
        "id": "f3724fc3-0ced-4a86-9597-fd386fa72331",
        "status": "finished",
        "class": {
          "system": "http://terminology.hl7.org/CodeSystem/v3-ActCode",
          "code": "AMB",
          "display": "Ambulatory"
        },
        "type": [
          {
            "coding": [
              {
                "system": "http://snomed.info/sct",
                "code": "308646001",
                "display": "CBT session"
              }
            ],
            "text": "CBT session"
          }
        ],
        "subject": {
          "reference": "Patient/b7f1f093-5670-4caa-a33b-8070afa4d364",
          "display": "Sakura Nguyen"
        },
        "participant": [
          {
            "individual": {
              "reference": "Practitioner/602b3ba4-fd36-4ed9-8573-1a7edea384cc",
              "display": "Dr. Sarah Johnson"
            }
          }
        ],
        "period": {
          "start": "2021-02-15"
        },
        "serviceProvider": {
          "reference": "Organization/b067b0b4-612a-4300-8f11-b1b525602c0c",
          "display": "Comprehensive Cancer Center"
        },
        "reasonReference": [
          {
            "reference": "Condition/27b2f45b-dd28-4a13-b3e8-9e535d8aff14",
            "display": "major depressive disorder"
          }
        ]
      },
      "request": {
        "method": "PUT",
        "url": "Encounter/f3724fc3-0ced-4a86-9597-fd386fa72331"
      }
    },
    {
      "resource": {
        "resourceType": "Procedure",
        "id": "54827dc2-c97d-4691-8443-b43fd24f5bbf",
        "status": "completed",
        "code": {
          "coding": [
            {
              "system": "http://snomed.info/sct",
              "code": "387713003",
              "display": "CBT session"
            }
          ],
          "text": "CBT session"
        },
        "subject": {
          "reference": "Patient/b7f1f093-5670-4caa-a33b-8070afa4d364",
          "display": "Sakura Nguyen"
        },
        "encounter": {
          "reference": "Encounter/f3724fc3-0ced-4a86-9597-fd386fa72331"
        },
        "performedDateTime": "2021-02-15",
        "performer": [
          {
            "actor": {
              "reference": "Practitioner/602b3ba4-fd36-4ed9-8573-1a7edea384cc",
              "display": "Dr. Sarah Johnson"
            }
          }
        ],
        "reasonReference": [
          {
            "reference": "Condition/27b2f45b-dd28-4a13-b3e8-9e535d8aff14",
            "display": "major depressive disorder"
          }
        ]
      },
      "request": {
        "method": "PUT",
        "url": "Procedure/54827dc2-c97d-4691-8443-b43fd24f5bbf"
      }
    },
    {
      "resource": {
        "resourceType": "Encounter",
        "id": "806b0baa-de65-47a1-ae70-bb9422e32d12",
        "status": "finished",
        "class": {
          "system": "http://terminology.hl7.org/CodeSystem/v3-ActCode",
          "code": "AMB",
          "display": "Ambulatory"
        },
        "type": [
          {
            "coding": [
              {
                "system": "http://snomed.info/sct",
                "code": "308646001",
                "display": "CBT session"
              }
            ],
            "text": "CBT session"
          }
        ],
        "subject": {
          "reference": "Patient/b7f1f093-5670-4caa-a33b-8070afa4d364",
          "display": "Sakura Nguyen"
        },
        "participant": [
          {
            "individual": {
              "reference": "Practitioner/602b3ba4-fd36-4ed9-8573-1a7edea384cc",
              "display": "Dr. Sarah Johnson"
            }
          }
        ],
        "period": {
          "start": "2021-02-22"
        },
        "serviceProvider": {
          "reference": "Organization/b067b0b4-612a-4300-8f11-b1b525602c0c",
          "display": "Comprehensive Cancer Center"
        },
        "reasonReference": [
          {
            "reference": "Condition/27b2f45b-dd28-4a13-b3e8-9e535d8aff14",
            "display": "major depressive disorder"
          }
        ]
      },
      "request": {
        "method": "PUT",
        "url": "Encounter/806b0baa-de65-47a1-ae70-bb9422e32d12"
      }
    },
    {
      "resource": {
        "resourceType": "Procedure",
        "id": "9f661fbc-1411-448c-ab7b-7bf20f400689",
        "status": "completed",
        "code": {
          "coding": [
            {
              "system": "http://snomed.info/sct",
              "code": "387713003",
              "display": "CBT session"
            }
          ],
          "text": "CBT session"
        },
        "subject": {
          "reference": "Patient/b7f1f093-5670-4caa-a33b-8070afa4d364",
          "display": "Sakura Nguyen"
        },
        "encounter": {
          "reference": "Encounter/806b0baa-de65-47a1-ae70-bb9422e32d12"
        },
        "performedDateTime": "2021-02-22",
        "performer": [
          {
            "actor": {
              "reference": "Practitioner/602b3ba4-fd36-4ed9-8573-1a7edea384cc",
              "display": "Dr. Sarah Johnson"
            }
          }
        ],
        "reasonReference": [
          {
            "reference": "Condition/27b2f45b-dd28-4a13-b3e8-9e535d8aff14",
            "display": "major depressive disorder"
          }
        ]
      },
      "request": {
        "method": "PUT",
        "url": "Procedure/9f661fbc-1411-448c-ab7b-7bf20f400689"
      }
    },
    {
      "resource": {
        "resourceType": "Encounter",
        "id": "7806841f-2814-4f5a-aece-28a63c3ab5ef",
        "status": "finished",
        "class": {
          "system": "http://terminology.hl7.org/CodeSystem/v3-ActCode",
          "code": "AMB",
          "display": "Ambulatory"
        },
        "type": [
          {
            "coding": [
              {
                "system": "http://snomed.info/sct",
                "code": "308646001",
                "display": "CBT session"
              }
            ],
            "text": "CBT session"
          }
        ],
        "subject": {
          "reference": "Patient/b7f1f093-5670-4caa-a33b-8070afa4d364",
          "display": "Sakura Nguyen"
        },
        "participant": [
          {
            "individual": {
              "reference": "Practitioner/602b3ba4-fd36-4ed9-8573-1a7edea384cc",
              "display": "Dr. Sarah Johnson"
            }
          }
        ],
        "period": {
          "start": "2021-03-01"
        },
        "serviceProvider": {
          "reference": "Organization/b067b0b4-612a-4300-8f11-b1b525602c0c",
          "display": "Comprehensive Cancer Center"
        },
        "reasonReference": [
          {
            "reference": "Condition/27b2f45b-dd28-4a13-b3e8-9e535d8aff14",
            "display": "major depressive disorder"
          }
        ]
      },
      "request": {
        "method": "PUT",
        "url": "Encounter/7806841f-2814-4f5a-aece-28a63c3ab5ef"
      }
    },
    {
      "resource": {
        "resourceType": "Procedure",
        "id": "992d43f7-bc5b-4952-9986-8054f4818525",
        "status": "completed",
        "code": {
          "coding": [
            {
              "system": "http://snomed.info/sct",
              "code": "387713003",
              "display": "CBT session"
            }
          ],
          "text": "CBT session"
        },
        "subject": {
          "reference": "Patient/b7f1f093-5670-4caa-a33b-8070afa4d364",
          "display": "Sakura Nguyen"
        },
        "encounter": {
          "reference": "Encounter/7806841f-2814-4f5a-aece-28a63c3ab5ef"
        },
        "performedDateTime": "2021-03-01",
        "performer": [
          {
            "actor": {
              "reference": "Practitioner/602b3ba4-fd36-4ed9-8573-1a7edea384cc",
              "display": "Dr. Sarah Johnson"
            }
          }
        ],
        "reasonReference": [
          {
            "reference": "Condition/27b2f45b-dd28-4a13-b3e8-9e535d8aff14",
            "display": "major depressive disorder"
          }
        ]
      },
      "request": {
        "method": "PUT",
        "url": "Procedure/992d43f7-bc5b-4952-9986-8054f4818525"
      }
    },
    {
      "resource": {
        "resourceType": "Encounter",
        "id": "4ea9fb27-0421-4c63-a8a5-df409084b458",
        "status": "finished",
        "class": {
          "system": "http://terminology.hl7.org/CodeSystem/v3-ActCode",
          "code": "AMB",
          "display": "Ambulatory"
        },
        "type": [
          {
            "coding": [
              {
                "system": "http://snomed.info/sct",
                "code": "308646001",
                "display": "CBT session"
              }
            ],
            "text": "CBT session"
          }
        ],
        "subject": {
          "reference": "Patient/b7f1f093-5670-4caa-a33b-8070afa4d364",
          "display": "Sakura Nguyen"
        },
        "participant": [
          {
            "individual": {
              "reference": "Practitioner/602b3ba4-fd36-4ed9-8573-1a7edea384cc",
              "display": "Dr. Sarah Johnson"
            }
          }
        ],
        "period": {
          "start": "2021-03-08"
        },
        "serviceProvider": {
          "reference": "Organization/b067b0b4-612a-4300-8f11-b1b525602c0c",
          "display": "Comprehensive Cancer Center"
        },
        "reasonReference": [
          {
            "reference": "Condition/27b2f45b-dd28-4a13-b3e8-9e535d8aff14",
            "display": "major depressive disorder"
          }
        ]
      },
      "request": {
        "method": "PUT",
        "url": "Encounter/4ea9fb27-0421-4c63-a8a5-df409084b458"
      }
    },
    {
      "resource": {
        "resourceType": "Procedure",
        "id": "ba397186-7731-40f9-a615-28c6c6ee4bc7",
        "status": "completed",
        "code": {
          "coding": [
            {
              "system": "http://snomed.info/sct",
              "code": "387713003",
              "display": "CBT session"
            }
          ],
          "text": "CBT session"
        },
        "subject": {
          "reference": "Patient/b7f1f093-5670-4caa-a33b-8070afa4d364",
          "display": "Sakura Nguyen"
        },
        "encounter": {
          "reference": "Encounter/4ea9fb27-0421-4c63-a8a5-df409084b458"
        },
        "performedDateTime": "2021-03-08",
        "performer": [
          {
            "actor": {
              "reference": "Practitioner/602b3ba4-fd36-4ed9-8573-1a7edea384cc",
              "display": "Dr. Sarah Johnson"
            }
          }
        ],
        "reasonReference": [
          {
            "reference": "Condition/27b2f45b-dd28-4a13-b3e8-9e535d8aff14",
            "display": "major depressive disorder"
          }
        ]
      },
      "request": {
        "method": "PUT",
        "url": "Procedure/ba397186-7731-40f9-a615-28c6c6ee4bc7"
      }
    },
    {
      "resource": {
        "resourceType": "Encounter",
        "id": "1639669d-a00a-43d9-ac75-c0687ba24a7b",
        "status": "finished",
        "class": {
          "system": "http://terminology.hl7.org/CodeSystem/v3-ActCode",
          "code": "AMB",
          "display": "Ambulatory"
        },
        "type": [
          {
            "coding": [
              {
                "system": "http://snomed.info/sct",
                "code": "308646001",
                "display": "CBT session"
              }
            ],
            "text": "CBT session"
          }
        ],
        "subject": {
          "reference": "Patient/b7f1f093-5670-4caa-a33b-8070afa4d364",
          "display": "Sakura Nguyen"
        },
        "participant": [
          {
            "individual": {
              "reference": "Practitioner/602b3ba4-fd36-4ed9-8573-1a7edea384cc",
              "display": "Dr. Sarah Johnson"
            }
          }
        ],
        "period": {
          "start": "2021-03-15"
        },
        "serviceProvider": {
          "reference": "Organization/b067b0b4-612a-4300-8f11-b1b525602c0c",
          "display": "Comprehensive Cancer Center"
        },
        "reasonReference": [
          {
            "reference": "Condition/27b2f45b-dd28-4a13-b3e8-9e535d8aff14",
            "display": "major depressive disorder"
          }
        ]
      },
      "request": {
        "method": "PUT",
        "url": "Encounter/1639669d-a00a-43d9-ac75-c0687ba24a7b"
      }
    },
    {
      "resource": {
        "resourceType": "Procedure",
        "id": "6195aace-22ec-4d53-aec3-62dfeda629ef",
        "status": "completed",
        "code": {
          "coding": [
            {
              "system": "http://snomed.info/sct",
              "code": "387713003",
              "display": "CBT session"
            }
          ],
          "text": "CBT session"
        },
        "subject": {
          "reference": "Patient/b7f1f093-5670-4caa-a33b-8070afa4d364",
          "display": "Sakura Nguyen"
        },
        "encounter": {
          "reference": "Encounter/1639669d-a00a-43d9-ac75-c0687ba24a7b"
        },
        "performedDateTime": "2021-03-15",
        "performer": [
          {
            "actor": {
              "reference": "Practitioner/602b3ba4-fd36-4ed9-8573-1a7edea384cc",
              "display": "Dr. Sarah Johnson"
            }
          }
        ],
        "reasonReference": [
          {
            "reference": "Condition/27b2f45b-dd28-4a13-b3e8-9e535d8aff14",
            "display": "major depressive disorder"
          }
        ]
      },
      "request": {
        "method": "PUT",
        "url": "Procedure/6195aace-22ec-4d53-aec3-62dfeda629ef"
      }
    },
    {
      "resource": {
        "resourceType": "Encounter",
        "id": "bf5bc3da-3f0c-4bc7-9719-a36b81f4d357",
        "status": "finished",
        "class": {
          "system": "http://terminology.hl7.org/CodeSystem/v3-ActCode",
          "code": "AMB",
          "display": "Ambulatory"
        },
        "type": [
          {
            "coding": [
              {
                "system": "http://snomed.info/sct",
                "code": "308646001",
                "display": "Medication review"
              }
            ],
            "text": "Medication review"
          }
        ],
        "subject": {
          "reference": "Patient/b7f1f093-5670-4caa-a33b-8070afa4d364",
          "display": "Sakura Nguyen"
        },
        "participant": [
          {
            "individual": {
              "reference": "Practitioner/602b3ba4-fd36-4ed9-8573-1a7edea384cc",
              "display": "Dr. Sarah Johnson"
            }
          }
        ],
        "period": {
          "start": "2021-03-25"
        },
        "serviceProvider": {
          "reference": "Organization/b067b0b4-612a-4300-8f11-b1b525602c0c",
          "display": "Comprehensive Cancer Center"
        },
        "reasonReference": [
          {
            "reference": "Condition/27b2f45b-dd28-4a13-b3e8-9e535d8aff14",
            "display": "major depressive disorder"
          }
        ]
      },
      "request": {
        "method": "PUT",
        "url": "Encounter/bf5bc3da-3f0c-4bc7-9719-a36b81f4d357"
      }
    },
    {
      "resource": {
        "resourceType": "Procedure",
        "id": "b09fd23b-becf-4142-abec-6162b36d61e1",
        "status": "completed",
        "code": {
          "coding": [
            {
              "system": "http://snomed.info/sct",
              "code": "387713003",
              "display": "Medication review"
            }
          ],
          "text": "Medication review"
        },
        "subject": {
          "reference": "Patient/b7f1f093-5670-4caa-a33b-8070afa4d364",
          "display": "Sakura Nguyen"
        },
        "encounter": {
          "reference": "Encounter/bf5bc3da-3f0c-4bc7-9719-a36b81f4d357"
        },
        "performedDateTime": "2021-03-25",
        "performer": [
          {
            "actor": {
              "reference": "Practitioner/602b3ba4-fd36-4ed9-8573-1a7edea384cc",
              "display": "Dr. Sarah Johnson"
            }
          }
        ],
        "reasonReference": [
          {
            "reference": "Condition/27b2f45b-dd28-4a13-b3e8-9e535d8aff14",
            "display": "major depressive disorder"
          }
        ]
      },
      "request": {
        "method": "PUT",
        "url": "Procedure/b09fd23b-becf-4142-abec-6162b36d61e1"
      }
    },
    {
      "resource": {
        "resourceType": "MedicationAdministration",
        "id": "8a5647cd-520d-455c-a9df-10e09ad8889f",
        "status": "completed",
        "medicationCodeableConcept": {
          "coding": [
            {
              "system": "http://www.nlm.nih.gov/research/umls/rxnorm",
              "code": "123456",
              "display": "SSRI"
            }
          ],
          "text": "SSRI"
        },
        "subject": {
          "reference": "Patient/b7f1f093-5670-4caa-a33b-8070afa4d364",
          "display": "Sakura Nguyen"
        },
        "context": {
          "reference": "Encounter/bf5bc3da-3f0c-4bc7-9719-a36b81f4d357"
        },
        "effectiveDateTime": "2021-03-25",
        "performer": [
          {
            "actor": {
              "reference": "Practitioner/602b3ba4-fd36-4ed9-8573-1a7edea384cc",
              "display": "Dr. Sarah Johnson"
            }
          }
        ],
        "reasonReference": [
          {
            "reference": "Condition/27b2f45b-dd28-4a13-b3e8-9e535d8aff14",
            "display": "major depressive disorder"
          }
        ],
        "dosage": {
          "text": "As prescribed per protocol",
          "route": {
            "coding": [
              {
                "system": "http://snomed.info/sct",
                "code": "47625008",
                "display": "Intravenous route"
              }
            ]
          },
          "dose": {
            "value": 1,
            "unit": "dose",
            "system": "http://unitsofmeasure.org",
            "code": "1"
          }
        }
      },
      "request": {
        "method": "PUT",
        "url": "MedicationAdministration/8a5647cd-520d-455c-a9df-10e09ad8889f"
      }
    },
    {
      "resource": {
        "resourceType": "Encounter",
        "id": "73ed739c-a62b-4a95-95d9-6e8d8d7af226",
        "status": "finished",
        "class": {
          "system": "http://terminology.hl7.org/CodeSystem/v3-ActCode",
          "code": "AMB",
          "display": "Ambulatory"
        },
        "type": [
          {
            "coding": [
              {
                "system": "http://snomed.info/sct",
                "code": "308646001",
                "display": "Medication adjustment"
              }
            ],
            "text": "Medication adjustment"
          }
        ],
        "subject": {
          "reference": "Patient/b7f1f093-5670-4caa-a33b-8070afa4d364",
          "display": "Sakura Nguyen"
        },
        "participant": [
          {
            "individual": {
              "reference": "Practitioner/602b3ba4-fd36-4ed9-8573-1a7edea384cc",
              "display": "Dr. Sarah Johnson"
            }
          }
        ],
        "period": {
          "start": "2021-04-10"
        },
        "serviceProvider": {
          "reference": "Organization/b067b0b4-612a-4300-8f11-b1b525602c0c",
          "display": "Comprehensive Cancer Center"
        },
        "reasonReference": [
          {
            "reference": "Condition/27b2f45b-dd28-4a13-b3e8-9e535d8aff14",
            "display": "major depressive disorder"
          }
        ]
      },
      "request": {
        "method": "PUT",
        "url": "Encounter/73ed739c-a62b-4a95-95d9-6e8d8d7af226"
      }
    },
    {
      "resource": {
        "resourceType": "Procedure",
        "id": "e8d7a2af-fd86-4569-b8f4-9b64ae1ccc45",
        "status": "completed",
        "code": {
          "coding": [
            {
              "system": "http://snomed.info/sct",
              "code": "387713003",
              "display": "Medication adjustment"
            }
          ],
          "text": "Medication adjustment"
        },
        "subject": {
          "reference": "Patient/b7f1f093-5670-4caa-a33b-8070afa4d364",
          "display": "Sakura Nguyen"
        },
        "encounter": {
          "reference": "Encounter/73ed739c-a62b-4a95-95d9-6e8d8d7af226"
        },
        "performedDateTime": "2021-04-10",
        "performer": [
          {
            "actor": {
              "reference": "Practitioner/602b3ba4-fd36-4ed9-8573-1a7edea384cc",
              "display": "Dr. Sarah Johnson"
            }
          }
        ],
        "reasonReference": [
          {
            "reference": "Condition/27b2f45b-dd28-4a13-b3e8-9e535d8aff14",
            "display": "major depressive disorder"
          }
        ]
      },
      "request": {
        "method": "PUT",
        "url": "Procedure/e8d7a2af-fd86-4569-b8f4-9b64ae1ccc45"
      }
    },
    {
      "resource": {
        "resourceType": "MedicationAdministration",
        "id": "451de6ff-0d48-4434-91ad-04589e2f25c0",
        "status": "completed",
        "medicationCodeableConcept": {
          "coding": [
            {
              "system": "http://www.nlm.nih.gov/research/umls/rxnorm",
              "code": "123456",
              "display": "SSRI - increased dosage"
            }
          ],
          "text": "SSRI - increased dosage"
        },
        "subject": {
          "reference": "Patient/b7f1f093-5670-4caa-a33b-8070afa4d364",
          "display": "Sakura Nguyen"
        },
        "context": {
          "reference": "Encounter/73ed739c-a62b-4a95-95d9-6e8d8d7af226"
        },
        "effectiveDateTime": "2021-04-10",
        "performer": [
          {
            "actor": {
              "reference": "Practitioner/602b3ba4-fd36-4ed9-8573-1a7edea384cc",
              "display": "Dr. Sarah Johnson"
            }
          }
        ],
        "reasonReference": [
          {
            "reference": "Condition/27b2f45b-dd28-4a13-b3e8-9e535d8aff14",
            "display": "major depressive disorder"
          }
        ],
        "dosage": {
          "text": "As prescribed per protocol",
          "route": {
            "coding": [
              {
                "system": "http://snomed.info/sct",
                "code": "47625008",
                "display": "Intravenous route"
              }
            ]
          },
          "dose": {
            "value": 1,
            "unit": "dose",
            "system": "http://unitsofmeasure.org",
            "code": "1"
          }
        }
      },
      "request": {
        "method": "PUT",
        "url": "MedicationAdministration/451de6ff-0d48-4434-91ad-04589e2f25c0"
      }
    },
    {
      "resource": {
        "resourceType": "Encounter",
        "id": "474607c3-489c-4f8c-a5c3-6f9d32517768",
        "status": "finished",
        "class": {
          "system": "http://terminology.hl7.org/CodeSystem/v3-ActCode",
          "code": "AMB",
          "display": "Ambulatory"
        },
        "type": [
          {
            "coding": [
              {
                "system": "http://snomed.info/sct",
                "code": "308646001",
                "display": "Medication follow-up"
              }
            ],
            "text": "Medication follow-up"
          }
        ],
        "subject": {
          "reference": "Patient/b7f1f093-5670-4caa-a33b-8070afa4d364",
          "display": "Sakura Nguyen"
        },
        "participant": [
          {
            "individual": {
              "reference": "Practitioner/602b3ba4-fd36-4ed9-8573-1a7edea384cc",
              "display": "Dr. Sarah Johnson"
            }
          }
        ],
        "period": {
          "start": "2021-04-30"
        },
        "serviceProvider": {
          "reference": "Organization/b067b0b4-612a-4300-8f11-b1b525602c0c",
          "display": "Comprehensive Cancer Center"
        },
        "reasonReference": [
          {
            "reference": "Condition/27b2f45b-dd28-4a13-b3e8-9e535d8aff14",
            "display": "major depressive disorder"
          }
        ]
      },
      "request": {
        "method": "PUT",
        "url": "Encounter/474607c3-489c-4f8c-a5c3-6f9d32517768"
      }
    },
    {
      "resource": {
        "resourceType": "Procedure",
        "id": "9dcdab11-6c50-4f75-a939-1fd3b3fe0f63",
        "status": "completed",
        "code": {
          "coding": [
            {
              "system": "http://snomed.info/sct",
              "code": "387713003",
              "display": "Medication follow-up"
            }
          ],
          "text": "Medication follow-up"
        },
        "subject": {
          "reference": "Patient/b7f1f093-5670-4caa-a33b-8070afa4d364",
          "display": "Sakura Nguyen"
        },
        "encounter": {
          "reference": "Encounter/474607c3-489c-4f8c-a5c3-6f9d32517768"
        },
        "performedDateTime": "2021-04-30",
        "performer": [
          {
            "actor": {
              "reference": "Practitioner/602b3ba4-fd36-4ed9-8573-1a7edea384cc",
              "display": "Dr. Sarah Johnson"
            }
          }
        ],
        "reasonReference": [
          {
            "reference": "Condition/27b2f45b-dd28-4a13-b3e8-9e535d8aff14",
            "display": "major depressive disorder"
          }
        ]
      },
      "request": {
        "method": "PUT",
        "url": "Procedure/9dcdab11-6c50-4f75-a939-1fd3b3fe0f63"
      }
    },
    {
      "resource": {
        "resourceType": "MedicationAdministration",
        "id": "56bb1be6-f0f5-4579-a1c0-7f133ef1ed49",
        "status": "completed",
        "medicationCodeableConcept": {
          "coding": [
            {
              "system": "http://www.nlm.nih.gov/research/umls/rxnorm",
              "code": "123456",
              "display": "SSRI - stable dosage"
            }
          ],
          "text": "SSRI - stable dosage"
        },
        "subject": {
          "reference": "Patient/b7f1f093-5670-4caa-a33b-8070afa4d364",
          "display": "Sakura Nguyen"
        },
        "context": {
          "reference": "Encounter/474607c3-489c-4f8c-a5c3-6f9d32517768"
        },
        "effectiveDateTime": "2021-04-30",
        "performer": [
          {
            "actor": {
              "reference": "Practitioner/602b3ba4-fd36-4ed9-8573-1a7edea384cc",
              "display": "Dr. Sarah Johnson"
            }
          }
        ],
        "reasonReference": [
          {
            "reference": "Condition/27b2f45b-dd28-4a13-b3e8-9e535d8aff14",
            "display": "major depressive disorder"
          }
        ],
        "dosage": {
          "text": "As prescribed per protocol",
          "route": {
            "coding": [
              {
                "system": "http://snomed.info/sct",
                "code": "47625008",
                "display": "Intravenous route"
              }
            ]
          },
          "dose": {
            "value": 1,
            "unit": "dose",
            "system": "http://unitsofmeasure.org",
            "code": "1"
          }
        }
      },
      "request": {
        "method": "PUT",
        "url": "MedicationAdministration/56bb1be6-f0f5-4579-a1c0-7f133ef1ed49"
      }
    },
    {
      "resource": {
        "resourceType": "Encounter",
        "id": "952b1e67-ee1c-471f-bf94-674dacf51f39",
        "status": "finished",
        "class": {
          "system": "http://terminology.hl7.org/CodeSystem/v3-ActCode",
          "code": "AMB",
          "display": "Ambulatory"
        },
        "type": [
          {
            "coding": [
              {
                "system": "http://snomed.info/sct",
                "code": "308646001",
                "display": "Follow-up visit"
              }
            ],
            "text": "Follow-up visit"
          }
        ],
        "subject": {
          "reference": "Patient/b7f1f093-5670-4caa-a33b-8070afa4d364",
          "display": "Sakura Nguyen"
        },
        "participant": [
          {
            "individual": {
              "reference": "Practitioner/602b3ba4-fd36-4ed9-8573-1a7edea384cc",
              "display": "Dr. Sarah Johnson"
            }
          }
        ],
        "period": {
          "start": "2021-05-15"
        },
        "serviceProvider": {
          "reference": "Organization/b067b0b4-612a-4300-8f11-b1b525602c0c",
          "display": "Comprehensive Cancer Center"
        },
        "reasonReference": [
          {
            "reference": "Condition/27b2f45b-dd28-4a13-b3e8-9e535d8aff14",
            "display": "major depressive disorder"
          }
        ]
      },
      "request": {
        "method": "PUT",
        "url": "Encounter/952b1e67-ee1c-471f-bf94-674dacf51f39"
      }
    },
    {
      "resource": {
        "resourceType": "Encounter",
        "id": "feabc838-f438-46e5-8853-9a2ab2b81850",
        "status": "finished",
        "class": {
          "system": "http://terminology.hl7.org/CodeSystem/v3-ActCode",
          "code": "AMB",
          "display": "Ambulatory"
        },
        "type": [
          {
            "coding": [
              {
                "system": "http://snomed.info/sct",
                "code": "308646001",
                "display": "Follow-up visit"
              }
            ],
            "text": "Follow-up visit"
          }
        ],
        "subject": {
          "reference": "Patient/b7f1f093-5670-4caa-a33b-8070afa4d364",
          "display": "Sakura Nguyen"
        },
        "participant": [
          {
            "individual": {
              "reference": "Practitioner/602b3ba4-fd36-4ed9-8573-1a7edea384cc",
              "display": "Dr. Sarah Johnson"
            }
          }
        ],
        "period": {
          "start": "2021-05-30"
        },
        "serviceProvider": {
          "reference": "Organization/b067b0b4-612a-4300-8f11-b1b525602c0c",
          "display": "Comprehensive Cancer Center"
        },
        "reasonReference": [
          {
            "reference": "Condition/27b2f45b-dd28-4a13-b3e8-9e535d8aff14",
            "display": "major depressive disorder"
          }
        ]
      },
      "request": {
        "method": "PUT",
        "url": "Encounter/feabc838-f438-46e5-8853-9a2ab2b81850"
      }
    },
    {
      "resource": {
        "resourceType": "Encounter",
        "id": "4c27af1e-e538-49df-bd77-9cbc7cf7b0de",
        "status": "finished",
        "class": {
          "system": "http://terminology.hl7.org/CodeSystem/v3-ActCode",
          "code": "AMB",
          "display": "Ambulatory"
        },
        "type": [
          {
            "coding": [
              {
                "system": "http://snomed.info/sct",
                "code": "308646001",
                "display": "Follow-up visit"
              }
            ],
            "text": "Follow-up visit"
          }
        ],
        "subject": {
          "reference": "Patient/b7f1f093-5670-4caa-a33b-8070afa4d364",
          "display": "Sakura Nguyen"
        },
        "participant": [
          {
            "individual": {
              "reference": "Practitioner/602b3ba4-fd36-4ed9-8573-1a7edea384cc",
              "display": "Dr. Sarah Johnson"
            }
          }
        ],
        "period": {
          "start": "2021-06-15"
        },
        "serviceProvider": {
          "reference": "Organization/b067b0b4-612a-4300-8f11-b1b525602c0c",
          "display": "Comprehensive Cancer Center"
        },
        "reasonReference": [
          {
            "reference": "Condition/27b2f45b-dd28-4a13-b3e8-9e535d8aff14",
            "display": "major depressive disorder"
          }
        ]
      },
      "request": {
        "method": "PUT",
        "url": "Encounter/4c27af1e-e538-49df-bd77-9cbc7cf7b0de"
      }
    },
    {
      "resource": {
        "resourceType": "DiagnosticReport",
        "status": "final",
        "category": [
          {
            "coding": [
              {
                "system": "http://terminology.hl7.org/CodeSystem/v2-0074",
                "code": "RAD",
                "display": "Radiology"
              }
            ]
          }
        ],
        "code": {
          "coding": [
            {
              "system": "http://loinc.org",
              "code": "18748-4",
              "display": "Diagnostic imaging study"
            }
          ]
        },
        "subject": {
          "reference": "Patient/b7f1f093-5670-4caa-a33b-8070afa4d364",
          "display": "Sakura Nguyen"
        },
        "effectiveDateTime": "2021-05-15",
        "performer": [
          {
            "reference": "Practitioner/602b3ba4-fd36-4ed9-8573-1a7edea384cc",
            "display": "Dr. Sarah Johnson"
          }
        ],
        "conclusion": "Patient shows improving status for major depressive disorder. Patient responded well to Cognitive Behavioral Therapy and SSRI medication. Follow-up visits scheduled to monitor progress."
      },
      "request": {
        "method": "POST",
        "url": "DiagnosticReport"
      }
    },
    {
      "resource": {
        "resourceType": "Observation",
        "status": "final",
        "category": [
          {
            "coding": [
              {
                "system": "http://terminology.hl7.org/CodeSystem/observation-category",
                "code": "clinical",
                "display": "Clinical"
              }
            ]
          }
        ],
        "code": {
          "coding": [
            {
              "system": "http://loinc.org",
              "code": "11323-3",
              "display": "Health status"
            }
          ]
        },
        "subject": {
          "reference": "Patient/b7f1f093-5670-4caa-a33b-8070afa4d364",
          "display": "Sakura Nguyen"
        },
        "valueString": "improving",
        "effectiveDateTime": "2021-05-15"
      },
      "request": {
        "method": "POST",
        "url": "Observation"
      }
    }
  ]
}