{
  "resourceType": "Bundle",
  "id": "0b78d9a4-820e-4c34-a6ec-a630452ff1a9",
  "type": "transaction",
  "entry": [
    {
      "resource": {
        "resourceType": "Patient",
        "id": "8ed15bdf-12e4-41a3-9b18-8d9952021700",
        "name": [
          {
            "use": "official",
            "family": "Nguyen",
            "given": [
              "Aisha"
            ]
          }
        ],
        "gender": "female",
        "birthDate": "1970-05-15",
        "address": [
          {
            "use": "home",
            "line": [
              "123 Main Street"
            ],
            "city": "Los Angeles",
            "state": "CA",
            "postalCode": "90001",
            "country": "USA"
          }
        ],
        "telecom": [
          {
            "system": "phone",
            "value": "(123) 456-7890",
            "use": "home"
          },
          {
            "system": "email",
            "value": "aisha.nguyen@example.com",
            "use": "home"
          }
        ],
        "extension": [
          {
            "url": "http://hl7.org/fhir/us/core/StructureDefinition/us-core-ethnicity",
            "valueString": "Asian"
          }
        ]
      },
      "request": {
        "method": "PUT",
        "url": "Patient/8ed15bdf-12e4-41a3-9b18-8d9952021700"
      }
    },
    {
      "resource": {
        "resourceType": "Practitioner",
        "id": "a45a9d45-8e34-4861-b1b4-d4a60c4833cc",
        "name": [
          {
            "use": "official",
            "family": "Johnson",
            "given": [
              "Dr. Sarah"
            ],
            "prefix": [
              "Dr."
            ]
          }
        ],
        "qualification": [
          {
            "code": {
              "coding": [
                {
                  "system": "http://terminology.hl7.org/CodeSystem/v2-0360",
                  "code": "MD",
                  "display": "Doctor of Medicine"
                }
              ]
            }
          }
        ]
      },
      "request": {
        "method": "PUT",
        "url": "Practitioner/a45a9d45-8e34-4861-b1b4-d4a60c4833cc"
      }
    },
    {
      "resource": {
        "resourceType": "Organization",
        "id": "6911970c-007f-483a-a8f4-9eedd1e777fa",
        "name": "Comprehensive Cancer Center",
        "type": [
          {
            "coding": [
              {
                "system": "http://terminology.hl7.org/CodeSystem/organization-type",
                "code": "prov",
                "display": "Healthcare Provider"
              }
            ]
          }
        ]
      },
      "request": {
        "method": "PUT",
        "url": "Organization/6911970c-007f-483a-a8f4-9eedd1e777fa"
      }
    },
    {
      "resource": {
        "resourceType": "Condition",
        "id": "b2be37a5-c681-427e-8bcc-857067290604",
        "clinicalStatus": {
          "coding": [
            {
              "system": "http://terminology.hl7.org/CodeSystem/condition-clinical",
              "code": "resolved",
              "display": "Resolved"
            }
          ]
        },
        "verificationStatus": {
          "coding": [
            {
              "system": "http://terminology.hl7.org/CodeSystem/condition-ver-status",
              "code": "confirmed",
              "display": "Confirmed"
            }
          ]
        },
        "code": {
          "coding": [
            {
              "system": "http://snomed.info/sct",
              "code": "42343007",
              "display": "congestive heart failure"
            }
          ],
          "text": "congestive heart failure"
        },
        "subject": {
          "reference": "Patient/8ed15bdf-12e4-41a3-9b18-8d9952021700",
          "display": "Aisha Nguyen"
        },
        "onsetDateTime": "2020-02-10",
        "recordedDate": "2020-02-15"
      },
      "request": {
        "method": "PUT",
        "url": "Condition/b2be37a5-c681-427e-8bcc-857067290604"
      }
    },
    {
      "resource": {
        "resourceType": "CarePlan",
        "id": "1a29d522-fc4f-4568-bf23-8fe914488d60",
        "status": "active",
        "intent": "plan",
        "title": "Treatment plan for congestive heart failure",
        "description": "Comprehensive treatment plan including Cardiac Catheterization, Cardiac Surgery, Cardiac Rehabilitation",
        "subject": {
          "reference": "Patient/8ed15bdf-12e4-41a3-9b18-8d9952021700",
          "display": "Aisha Nguyen"
        },
        "period": {
          "start": "2020-02-20"
        },
        "addresses": [
          {
            "reference": "Condition/b2be37a5-c681-427e-8bcc-857067290604",
            "display": "congestive heart failure"
          }
        ],
        "author": [
          {
            "reference": "Practitioner/a45a9d45-8e34-4861-b1b4-d4a60c4833cc",
            "display": "Dr. Sarah Johnson"
          }
        ]
      },
      "request": {
        "method": "PUT",
        "url": "CarePlan/1a29d522-fc4f-4568-bf23-8fe914488d60"
      }
    },
    {
      "resource": {
        "resourceType": "Encounter",
        "id": "2e24d8c1-2b55-448b-8920-07a712d38dbf",
        "status": "finished",
        "class": {
          "system": "http://terminology.hl7.org/CodeSystem/v3-ActCode",
          "code": "IMP",
          "display": "Inpatient"
        },
        "type": [
          {
            "coding": [
              {
                "system": "http://snomed.info/sct",
                "code": "308646001",
                "display": "Diagnostic procedure"
              }
            ],
            "text": "Diagnostic procedure"
          }
        ],
        "subject": {
          "reference": "Patient/8ed15bdf-12e4-41a3-9b18-8d9952021700",
          "display": "Aisha Nguyen"
        },
        "participant": [
          {
            "individual": {
              "reference": "Practitioner/a45a9d45-8e34-4861-b1b4-d4a60c4833cc",
              "display": "Dr. Sarah Johnson"
            }
          }
        ],
        "period": {
          "start": "2020-02-20"
        },
        "serviceProvider": {
          "reference": "Organization/6911970c-007f-483a-a8f4-9eedd1e777fa",
          "display": "Comprehensive Cancer Center"
        },
        "reasonReference": [
          {
            "reference": "Condition/b2be37a5-c681-427e-8bcc-857067290604",
            "display": "congestive heart failure"
          }
        ]
      },
      "request": {
        "method": "PUT",
        "url": "Encounter/2e24d8c1-2b55-448b-8920-07a712d38dbf"
      }
    },
    {
      "resource": {
        "resourceType": "Procedure",
        "id": "eb3f57c8-d77f-48cc-8037-a4869f241fda",
        "status": "completed",
        "code": {
          "coding": [
            {
              "system": "http://snomed.info/sct",
              "code": "387713003",
              "display": "Cardiac Catheterization"
            }
          ],
          "text": "Cardiac Catheterization"
        },
        "subject": {
          "reference": "Patient/8ed15bdf-12e4-41a3-9b18-8d9952021700",
          "display": "Aisha Nguyen"
        },
        "encounter": {
          "reference": "Encounter/2e24d8c1-2b55-448b-8920-07a712d38dbf"
        },
        "performedDateTime": "2020-02-20",
        "performer": [
          {
            "actor": {
              "reference": "Practitioner/a45a9d45-8e34-4861-b1b4-d4a60c4833cc",
              "display": "Dr. Sarah Johnson"
            }
          }
        ],
        "reasonReference": [
          {
            "reference": "Condition/b2be37a5-c681-427e-8bcc-857067290604",
            "display": "congestive heart failure"
          }
        ]
      },
      "request": {
        "method": "PUT",
        "url": "Procedure/eb3f57c8-d77f-48cc-8037-a4869f241fda"
      }
    },
    {
      "resource": {
        "resourceType": "MedicationAdministration",
        "id": "b35fb0dd-1fec-4256-932e-4b12462121e2",
        "status": "completed",
        "medicationCodeableConcept": {
          "coding": [
            {
              "system": "http://www.nlm.nih.gov/research/umls/rxnorm",
              "code": "123456",
              "display": "Aspirin"
            }
          ],
          "text": "Aspirin"
        },
        "subject": {
          "reference": "Patient/8ed15bdf-12e4-41a3-9b18-8d9952021700",
          "display": "Aisha Nguyen"
        },
        "context": {
          "reference": "Encounter/2e24d8c1-2b55-448b-8920-07a712d38dbf"
        },
        "effectiveDateTime": "2020-02-20",
        "performer": [
          {
            "actor": {
              "reference": "Practitioner/a45a9d45-8e34-4861-b1b4-d4a60c4833cc",
              "display": "Dr. Sarah Johnson"
            }
          }
        ],
        "reasonReference": [
          {
            "reference": "Condition/b2be37a5-c681-427e-8bcc-857067290604",
            "display": "congestive heart failure"
          }
        ],
        "dosage": {
          "text": "As prescribed per protocol",
          "route": {
            "coding": [
              {
                "system": "http://snomed.info/sct",
                "code": "47625008",
                "display": "Intravenous route"
              }
            ]
          },
          "dose": {
            "value": 1,
            "unit": "dose",
            "system": "http://unitsofmeasure.org",
            "code": "1"
          }
        }
      },
      "request": {
        "method": "PUT",
        "url": "MedicationAdministration/b35fb0dd-1fec-4256-932e-4b12462121e2"
      }
    },
    {
      "resource": {
        "resourceType": "MedicationAdministration",
        "id": "e9090ecf-a795-4bf0-a6bb-6b046c741fe2",
        "status": "completed",
        "medicationCodeableConcept": {
          "coding": [
            {
              "system": "http://www.nlm.nih.gov/research/umls/rxnorm",
              "code": "123456",
              "display": "Clopidogrel"
            }
          ],
          "text": "Clopidogrel"
        },
        "subject": {
          "reference": "Patient/8ed15bdf-12e4-41a3-9b18-8d9952021700",
          "display": "Aisha Nguyen"
        },
        "context": {
          "reference": "Encounter/2e24d8c1-2b55-448b-8920-07a712d38dbf"
        },
        "effectiveDateTime": "2020-02-20",
        "performer": [
          {
            "actor": {
              "reference": "Practitioner/a45a9d45-8e34-4861-b1b4-d4a60c4833cc",
              "display": "Dr. Sarah Johnson"
            }
          }
        ],
        "reasonReference": [
          {
            "reference": "Condition/b2be37a5-c681-427e-8bcc-857067290604",
            "display": "congestive heart failure"
          }
        ],
        "dosage": {
          "text": "As prescribed per protocol",
          "route": {
            "coding": [
              {
                "system": "http://snomed.info/sct",
                "code": "47625008",
                "display": "Intravenous route"
              }
            ]
          },
          "dose": {
            "value": 1,
            "unit": "dose",
            "system": "http://unitsofmeasure.org",
            "code": "1"
          }
        }
      },
      "request": {
        "method": "PUT",
        "url": "MedicationAdministration/e9090ecf-a795-4bf0-a6bb-6b046c741fe2"
      }
    },
    {
      "resource": {
        "resourceType": "Encounter",
        "id": "cd735dfb-f79f-4deb-97ff-66581b0946bb",
        "status": "finished",
        "class": {
          "system": "http://terminology.hl7.org/CodeSystem/v3-ActCode",
          "code": "AMB",
          "display": "Ambulatory"
        },
        "type": [
          {
            "coding": [
              {
                "system": "http://snomed.info/sct",
                "code": "308646001",
                "display": "Follow-up"
              }
            ],
            "text": "Follow-up"
          }
        ],
        "subject": {
          "reference": "Patient/8ed15bdf-12e4-41a3-9b18-8d9952021700",
          "display": "Aisha Nguyen"
        },
        "participant": [
          {
            "individual": {
              "reference": "Practitioner/a45a9d45-8e34-4861-b1b4-d4a60c4833cc",
              "display": "Dr. Sarah Johnson"
            }
          }
        ],
        "period": {
          "start": "2020-02-25"
        },
        "serviceProvider": {
          "reference": "Organization/6911970c-007f-483a-a8f4-9eedd1e777fa",
          "display": "Comprehensive Cancer Center"
        },
        "reasonReference": [
          {
            "reference": "Condition/b2be37a5-c681-427e-8bcc-857067290604",
            "display": "congestive heart failure"
          }
        ]
      },
      "request": {
        "method": "PUT",
        "url": "Encounter/cd735dfb-f79f-4deb-97ff-66581b0946bb"
      }
    },
    {
      "resource": {
        "resourceType": "Procedure",
        "id": "99708be7-ad13-48ec-8fd5-3b9821594a9d",
        "status": "completed",
        "code": {
          "coding": [
            {
              "system": "http://snomed.info/sct",
              "code": "387713003",
              "display": "Echocardiogram"
            }
          ],
          "text": "Echocardiogram"
        },
        "subject": {
          "reference": "Patient/8ed15bdf-12e4-41a3-9b18-8d9952021700",
          "display": "Aisha Nguyen"
        },
        "encounter": {
          "reference": "Encounter/cd735dfb-f79f-4deb-97ff-66581b0946bb"
        },
        "performedDateTime": "2020-02-25",
        "performer": [
          {
            "actor": {
              "reference": "Practitioner/a45a9d45-8e34-4861-b1b4-d4a60c4833cc",
              "display": "Dr. Sarah Johnson"
            }
          }
        ],
        "reasonReference": [
          {
            "reference": "Condition/b2be37a5-c681-427e-8bcc-857067290604",
            "display": "congestive heart failure"
          }
        ]
      },
      "request": {
        "method": "PUT",
        "url": "Procedure/99708be7-ad13-48ec-8fd5-3b9821594a9d"
      }
    },
    {
      "resource": {
        "resourceType": "MedicationAdministration",
        "id": "c5e2ac0e-a0a0-431b-b178-2bf99d45ced0",
        "status": "completed",
        "medicationCodeableConcept": {
          "coding": [
            {
              "system": "http://www.nlm.nih.gov/research/umls/rxnorm",
              "code": "123456",
              "display": "Enalapril"
            }
          ],
          "text": "Enalapril"
        },
        "subject": {
          "reference": "Patient/8ed15bdf-12e4-41a3-9b18-8d9952021700",
          "display": "Aisha Nguyen"
        },
        "context": {
          "reference": "Encounter/cd735dfb-f79f-4deb-97ff-66581b0946bb"
        },
        "effectiveDateTime": "2020-02-25",
        "performer": [
          {
            "actor": {
              "reference": "Practitioner/a45a9d45-8e34-4861-b1b4-d4a60c4833cc",
              "display": "Dr. Sarah Johnson"
            }
          }
        ],
        "reasonReference": [
          {
            "reference": "Condition/b2be37a5-c681-427e-8bcc-857067290604",
            "display": "congestive heart failure"
          }
        ],
        "dosage": {
          "text": "As prescribed per protocol",
          "route": {
            "coding": [
              {
                "system": "http://snomed.info/sct",
                "code": "47625008",
                "display": "Intravenous route"
              }
            ]
          },
          "dose": {
            "value": 1,
            "unit": "dose",
            "system": "http://unitsofmeasure.org",
            "code": "1"
          }
        }
      },
      "request": {
        "method": "PUT",
        "url": "MedicationAdministration/c5e2ac0e-a0a0-431b-b178-2bf99d45ced0"
      }
    },
    {
      "resource": {
        "resourceType": "Encounter",
        "id": "4cb0dbd1-07d4-4f63-a7ef-38367c4e1967",
        "status": "finished",
        "class": {
          "system": "http://terminology.hl7.org/CodeSystem/v3-ActCode",
          "code": "IMP",
          "display": "Inpatient"
        },
        "type": [
          {
            "coding": [
              {
                "system": "http://snomed.info/sct",
                "code": "308646001",
                "display": "Surgical intervention"
              }
            ],
            "text": "Surgical intervention"
          }
        ],
        "subject": {
          "reference": "Patient/8ed15bdf-12e4-41a3-9b18-8d9952021700",
          "display": "Aisha Nguyen"
        },
        "participant": [
          {
            "individual": {
              "reference": "Practitioner/a45a9d45-8e34-4861-b1b4-d4a60c4833cc",
              "display": "Dr. Sarah Johnson"
            }
          }
        ],
        "period": {
          "start": "2020-03-05"
        },
        "serviceProvider": {
          "reference": "Organization/6911970c-007f-483a-a8f4-9eedd1e777fa",
          "display": "Comprehensive Cancer Center"
        },
        "reasonReference": [
          {
            "reference": "Condition/b2be37a5-c681-427e-8bcc-857067290604",
            "display": "congestive heart failure"
          }
        ]
      },
      "request": {
        "method": "PUT",
        "url": "Encounter/4cb0dbd1-07d4-4f63-a7ef-38367c4e1967"
      }
    },
    {
      "resource": {
        "resourceType": "Procedure",
        "id": "d9ad4bc5-813c-4fa9-96a2-3fcba3d73ca2",
        "status": "completed",
        "code": {
          "coding": [
            {
              "system": "http://snomed.info/sct",
              "code": "387713003",
              "display": "Coronary Artery Bypass Grafting"
            }
          ],
          "text": "Coronary Artery Bypass Grafting"
        },
        "subject": {
          "reference": "Patient/8ed15bdf-12e4-41a3-9b18-8d9952021700",
          "display": "Aisha Nguyen"
        },
        "encounter": {
          "reference": "Encounter/4cb0dbd1-07d4-4f63-a7ef-38367c4e1967"
        },
        "performedDateTime": "2020-03-05",
        "performer": [
          {
            "actor": {
              "reference": "Practitioner/a45a9d45-8e34-4861-b1b4-d4a60c4833cc",
              "display": "Dr. Sarah Johnson"
            }
          }
        ],
        "reasonReference": [
          {
            "reference": "Condition/b2be37a5-c681-427e-8bcc-857067290604",
            "display": "congestive heart failure"
          }
        ]
      },
      "request": {
        "method": "PUT",
        "url": "Procedure/d9ad4bc5-813c-4fa9-96a2-3fcba3d73ca2"
      }
    },
    {
      "resource": {
        "resourceType": "MedicationAdministration",
        "id": "76b02074-be2a-40ed-9b8b-b6a315aede10",
        "status": "completed",
        "medicationCodeableConcept": {
          "coding": [
            {
              "system": "http://www.nlm.nih.gov/research/umls/rxnorm",
              "code": "123456",
              "display": "Heparin"
            }
          ],
          "text": "Heparin"
        },
        "subject": {
          "reference": "Patient/8ed15bdf-12e4-41a3-9b18-8d9952021700",
          "display": "Aisha Nguyen"
        },
        "context": {
          "reference": "Encounter/4cb0dbd1-07d4-4f63-a7ef-38367c4e1967"
        },
        "effectiveDateTime": "2020-03-05",
        "performer": [
          {
            "actor": {
              "reference": "Practitioner/a45a9d45-8e34-4861-b1b4-d4a60c4833cc",
              "display": "Dr. Sarah Johnson"
            }
          }
        ],
        "reasonReference": [
          {
            "reference": "Condition/b2be37a5-c681-427e-8bcc-857067290604",
            "display": "congestive heart failure"
          }
        ],
        "dosage": {
          "text": "As prescribed per protocol",
          "route": {
            "coding": [
              {
                "system": "http://snomed.info/sct",
                "code": "47625008",
                "display": "Intravenous route"
              }
            ]
          },
          "dose": {
            "value": 1,
            "unit": "dose",
            "system": "http://unitsofmeasure.org",
            "code": "1"
          }
        }
      },
      "request": {
        "method": "PUT",
        "url": "MedicationAdministration/76b02074-be2a-40ed-9b8b-b6a315aede10"
      }
    },
    {
      "resource": {
        "resourceType": "MedicationAdministration",
        "id": "f0de18c4-0c92-45f1-9e98-e29f26366002",
        "status": "completed",
        "medicationCodeableConcept": {
          "coding": [
            {
              "system": "http://www.nlm.nih.gov/research/umls/rxnorm",
              "code": "123456",
              "display": "Metoprolol"
            }
          ],
          "text": "Metoprolol"
        },
        "subject": {
          "reference": "Patient/8ed15bdf-12e4-41a3-9b18-8d9952021700",
          "display": "Aisha Nguyen"
        },
        "context": {
          "reference": "Encounter/4cb0dbd1-07d4-4f63-a7ef-38367c4e1967"
        },
        "effectiveDateTime": "2020-03-05",
        "performer": [
          {
            "actor": {
              "reference": "Practitioner/a45a9d45-8e34-4861-b1b4-d4a60c4833cc",
              "display": "Dr. Sarah Johnson"
            }
          }
        ],
        "reasonReference": [
          {
            "reference": "Condition/b2be37a5-c681-427e-8bcc-857067290604",
            "display": "congestive heart failure"
          }
        ],
        "dosage": {
          "text": "As prescribed per protocol",
          "route": {
            "coding": [
              {
                "system": "http://snomed.info/sct",
                "code": "47625008",
                "display": "Intravenous route"
              }
            ]
          },
          "dose": {
            "value": 1,
            "unit": "dose",
            "system": "http://unitsofmeasure.org",
            "code": "1"
          }
        }
      },
      "request": {
        "method": "PUT",
        "url": "MedicationAdministration/f0de18c4-0c92-45f1-9e98-e29f26366002"
      }
    },
    {
      "resource": {
        "resourceType": "Encounter",
        "id": "5df74325-83e2-41e9-b288-e22b4ee25456",
        "status": "finished",
        "class": {
          "system": "http://terminology.hl7.org/CodeSystem/v3-ActCode",
          "code": "AMB",
          "display": "Ambulatory"
        },
        "type": [
          {
            "coding": [
              {
                "system": "http://snomed.info/sct",
                "code": "308646001",
                "display": "Post-op check-up"
              }
            ],
            "text": "Post-op check-up"
          }
        ],
        "subject": {
          "reference": "Patient/8ed15bdf-12e4-41a3-9b18-8d9952021700",
          "display": "Aisha Nguyen"
        },
        "participant": [
          {
            "individual": {
              "reference": "Practitioner/a45a9d45-8e34-4861-b1b4-d4a60c4833cc",
              "display": "Dr. Sarah Johnson"
            }
          }
        ],
        "period": {
          "start": "2020-03-20"
        },
        "serviceProvider": {
          "reference": "Organization/6911970c-007f-483a-a8f4-9eedd1e777fa",
          "display": "Comprehensive Cancer Center"
        },
        "reasonReference": [
          {
            "reference": "Condition/b2be37a5-c681-427e-8bcc-857067290604",
            "display": "congestive heart failure"
          }
        ]
      },
      "request": {
        "method": "PUT",
        "url": "Encounter/5df74325-83e2-41e9-b288-e22b4ee25456"
      }
    },
    {
      "resource": {
        "resourceType": "Procedure",
        "id": "ab46017e-b500-467b-8c20-0b5f51eb5247",
        "status": "completed",
        "code": {
          "coding": [
            {
              "system": "http://snomed.info/sct",
              "code": "387713003",
              "display": "Stitch removal"
            }
          ],
          "text": "Stitch removal"
        },
        "subject": {
          "reference": "Patient/8ed15bdf-12e4-41a3-9b18-8d9952021700",
          "display": "Aisha Nguyen"
        },
        "encounter": {
          "reference": "Encounter/5df74325-83e2-41e9-b288-e22b4ee25456"
        },
        "performedDateTime": "2020-03-20",
        "performer": [
          {
            "actor": {
              "reference": "Practitioner/a45a9d45-8e34-4861-b1b4-d4a60c4833cc",
              "display": "Dr. Sarah Johnson"
            }
          }
        ],
        "reasonReference": [
          {
            "reference": "Condition/b2be37a5-c681-427e-8bcc-857067290604",
            "display": "congestive heart failure"
          }
        ]
      },
      "request": {
        "method": "PUT",
        "url": "Procedure/ab46017e-b500-467b-8c20-0b5f51eb5247"
      }
    },
    {
      "resource": {
        "resourceType": "MedicationAdministration",
        "id": "1ef345b5-8042-49dd-8b2a-e6afc783285f",
        "status": "completed",
        "medicationCodeableConcept": {
          "coding": [
            {
              "system": "http://www.nlm.nih.gov/research/umls/rxnorm",
              "code": "123456",
              "display": "Omeprazole"
            }
          ],
          "text": "Omeprazole"
        },
        "subject": {
          "reference": "Patient/8ed15bdf-12e4-41a3-9b18-8d9952021700",
          "display": "Aisha Nguyen"
        },
        "context": {
          "reference": "Encounter/5df74325-83e2-41e9-b288-e22b4ee25456"
        },
        "effectiveDateTime": "2020-03-20",
        "performer": [
          {
            "actor": {
              "reference": "Practitioner/a45a9d45-8e34-4861-b1b4-d4a60c4833cc",
              "display": "Dr. Sarah Johnson"
            }
          }
        ],
        "reasonReference": [
          {
            "reference": "Condition/b2be37a5-c681-427e-8bcc-857067290604",
            "display": "congestive heart failure"
          }
        ],
        "dosage": {
          "text": "As prescribed per protocol",
          "route": {
            "coding": [
              {
                "system": "http://snomed.info/sct",
                "code": "47625008",
                "display": "Intravenous route"
              }
            ]
          },
          "dose": {
            "value": 1,
            "unit": "dose",
            "system": "http://unitsofmeasure.org",
            "code": "1"
          }
        }
      },
      "request": {
        "method": "PUT",
        "url": "MedicationAdministration/1ef345b5-8042-49dd-8b2a-e6afc783285f"
      }
    },
    {
      "resource": {
        "resourceType": "Encounter",
        "id": "0ad3c478-b575-49fa-a6a6-a38cb76f8292",
        "status": "finished",
        "class": {
          "system": "http://terminology.hl7.org/CodeSystem/v3-ActCode",
          "code": "AMB",
          "display": "Ambulatory"
        },
        "type": [
          {
            "coding": [
              {
                "system": "http://snomed.info/sct",
                "code": "308646001",
                "display": "Rehab session 1"
              }
            ],
            "text": "Rehab session 1"
          }
        ],
        "subject": {
          "reference": "Patient/8ed15bdf-12e4-41a3-9b18-8d9952021700",
          "display": "Aisha Nguyen"
        },
        "participant": [
          {
            "individual": {
              "reference": "Practitioner/a45a9d45-8e34-4861-b1b4-d4a60c4833cc",
              "display": "Dr. Sarah Johnson"
            }
          }
        ],
        "period": {
          "start": "2020-04-01"
        },
        "serviceProvider": {
          "reference": "Organization/6911970c-007f-483a-a8f4-9eedd1e777fa",
          "display": "Comprehensive Cancer Center"
        },
        "reasonReference": [
          {
            "reference": "Condition/b2be37a5-c681-427e-8bcc-857067290604",
            "display": "congestive heart failure"
          }
        ]
      },
      "request": {
        "method": "PUT",
        "url": "Encounter/0ad3c478-b575-49fa-a6a6-a38cb76f8292"
      }
    },
    {
      "resource": {
        "resourceType": "Procedure",
        "id": "33f8b8dc-a6de-467e-bcb3-43e38d2517de",
        "status": "completed",
        "code": {
          "coding": [
            {
              "system": "http://snomed.info/sct",
              "code": "387713003",
              "display": "Physical therapy"
            }
          ],
          "text": "Physical therapy"
        },
        "subject": {
          "reference": "Patient/8ed15bdf-12e4-41a3-9b18-8d9952021700",
          "display": "Aisha Nguyen"
        },
        "encounter": {
          "reference": "Encounter/0ad3c478-b575-49fa-a6a6-a38cb76f8292"
        },
        "performedDateTime": "2020-04-01",
        "performer": [
          {
            "actor": {
              "reference": "Practitioner/a45a9d45-8e34-4861-b1b4-d4a60c4833cc",
              "display": "Dr. Sarah Johnson"
            }
          }
        ],
        "reasonReference": [
          {
            "reference": "Condition/b2be37a5-c681-427e-8bcc-857067290604",
            "display": "congestive heart failure"
          }
        ]
      },
      "request": {
        "method": "PUT",
        "url": "Procedure/33f8b8dc-a6de-467e-bcb3-43e38d2517de"
      }
    },
    {
      "resource": {
        "resourceType": "MedicationAdministration",
        "id": "9adcfa08-a31f-4a27-8f3b-9e15a414682a",
        "status": "completed",
        "medicationCodeableConcept": {
          "coding": [
            {
              "system": "http://www.nlm.nih.gov/research/umls/rxnorm",
              "code": "123456",
              "display": "Atorvastatin"
            }
          ],
          "text": "Atorvastatin"
        },
        "subject": {
          "reference": "Patient/8ed15bdf-12e4-41a3-9b18-8d9952021700",
          "display": "Aisha Nguyen"
        },
        "context": {
          "reference": "Encounter/0ad3c478-b575-49fa-a6a6-a38cb76f8292"
        },
        "effectiveDateTime": "2020-04-01",
        "performer": [
          {
            "actor": {
              "reference": "Practitioner/a45a9d45-8e34-4861-b1b4-d4a60c4833cc",
              "display": "Dr. Sarah Johnson"
            }
          }
        ],
        "reasonReference": [
          {
            "reference": "Condition/b2be37a5-c681-427e-8bcc-857067290604",
            "display": "congestive heart failure"
          }
        ],
        "dosage": {
          "text": "As prescribed per protocol",
          "route": {
            "coding": [
              {
                "system": "http://snomed.info/sct",
                "code": "47625008",
                "display": "Intravenous route"
              }
            ]
          },
          "dose": {
            "value": 1,
            "unit": "dose",
            "system": "http://unitsofmeasure.org",
            "code": "1"
          }
        }
      },
      "request": {
        "method": "PUT",
        "url": "MedicationAdministration/9adcfa08-a31f-4a27-8f3b-9e15a414682a"
      }
    },
    {
      "resource": {
        "resourceType": "MedicationAdministration",
        "id": "6a8da5cb-95e3-4d0f-aa51-cdd75acfde55",
        "status": "completed",
        "medicationCodeableConcept": {
          "coding": [
            {
              "system": "http://www.nlm.nih.gov/research/umls/rxnorm",
              "code": "123456",
              "display": "Furosemide"
            }
          ],
          "text": "Furosemide"
        },
        "subject": {
          "reference": "Patient/8ed15bdf-12e4-41a3-9b18-8d9952021700",
          "display": "Aisha Nguyen"
        },
        "context": {
          "reference": "Encounter/0ad3c478-b575-49fa-a6a6-a38cb76f8292"
        },
        "effectiveDateTime": "2020-04-01",
        "performer": [
          {
            "actor": {
              "reference": "Practitioner/a45a9d45-8e34-4861-b1b4-d4a60c4833cc",
              "display": "Dr. Sarah Johnson"
            }
          }
        ],
        "reasonReference": [
          {
            "reference": "Condition/b2be37a5-c681-427e-8bcc-857067290604",
            "display": "congestive heart failure"
          }
        ],
        "dosage": {
          "text": "As prescribed per protocol",
          "route": {
            "coding": [
              {
                "system": "http://snomed.info/sct",
                "code": "47625008",
                "display": "Intravenous route"
              }
            ]
          },
          "dose": {
            "value": 1,
            "unit": "dose",
            "system": "http://unitsofmeasure.org",
            "code": "1"
          }
        }
      },
      "request": {
        "method": "PUT",
        "url": "MedicationAdministration/6a8da5cb-95e3-4d0f-aa51-cdd75acfde55"
      }
    },
    {
      "resource": {
        "resourceType": "Encounter",
        "id": "8d4633d0-00cb-4f0b-bf47-3ef73dd670ab",
        "status": "finished",
        "class": {
          "system": "http://terminology.hl7.org/CodeSystem/v3-ActCode",
          "code": "AMB",
          "display": "Ambulatory"
        },
        "type": [
          {
            "coding": [
              {
                "system": "http://snomed.info/sct",
                "code": "308646001",
                "display": "Rehab session 12"
              }
            ],
            "text": "Rehab session 12"
          }
        ],
        "subject": {
          "reference": "Patient/8ed15bdf-12e4-41a3-9b18-8d9952021700",
          "display": "Aisha Nguyen"
        },
        "participant": [
          {
            "individual": {
              "reference": "Practitioner/a45a9d45-8e34-4861-b1b4-d4a60c4833cc",
              "display": "Dr. Sarah Johnson"
            }
          }
        ],
        "period": {
          "start": "2020-04-30"
        },
        "serviceProvider": {
          "reference": "Organization/6911970c-007f-483a-a8f4-9eedd1e777fa",
          "display": "Comprehensive Cancer Center"
        },
        "reasonReference": [
          {
            "reference": "Condition/b2be37a5-c681-427e-8bcc-857067290604",
            "display": "congestive heart failure"
          }
        ]
      },
      "request": {
        "method": "PUT",
        "url": "Encounter/8d4633d0-00cb-4f0b-bf47-3ef73dd670ab"
      }
    },
    {
      "resource": {
        "resourceType": "Procedure",
        "id": "ab0e7860-545c-4c21-bc09-ad5f714c7bc8",
        "status": "completed",
        "code": {
          "coding": [
            {
              "system": "http://snomed.info/sct",
              "code": "387713003",
              "display": "Exercise stress test"
            }
          ],
          "text": "Exercise stress test"
        },
        "subject": {
          "reference": "Patient/8ed15bdf-12e4-41a3-9b18-8d9952021700",
          "display": "Aisha Nguyen"
        },
        "encounter": {
          "reference": "Encounter/8d4633d0-00cb-4f0b-bf47-3ef73dd670ab"
        },
        "performedDateTime": "2020-04-30",
        "performer": [
          {
            "actor": {
              "reference": "Practitioner/a45a9d45-8e34-4861-b1b4-d4a60c4833cc",
              "display": "Dr. Sarah Johnson"
            }
          }
        ],
        "reasonReference": [
          {
            "reference": "Condition/b2be37a5-c681-427e-8bcc-857067290604",
            "display": "congestive heart failure"
          }
        ]
      },
      "request": {
        "method": "PUT",
        "url": "Procedure/ab0e7860-545c-4c21-bc09-ad5f714c7bc8"
      }
    },
    {
      "resource": {
        "resourceType": "MedicationAdministration",
        "id": "98b9c4b6-2155-41c2-90ba-af29a1b08f9d",
        "status": "completed",
        "medicationCodeableConcept": {
          "coding": [
            {
              "system": "http://www.nlm.nih.gov/research/umls/rxnorm",
              "code": "123456",
              "display": "Spironolactone"
            }
          ],
          "text": "Spironolactone"
        },
        "subject": {
          "reference": "Patient/8ed15bdf-12e4-41a3-9b18-8d9952021700",
          "display": "Aisha Nguyen"
        },
        "context": {
          "reference": "Encounter/8d4633d0-00cb-4f0b-bf47-3ef73dd670ab"
        },
        "effectiveDateTime": "2020-04-30",
        "performer": [
          {
            "actor": {
              "reference": "Practitioner/a45a9d45-8e34-4861-b1b4-d4a60c4833cc",
              "display": "Dr. Sarah Johnson"
            }
          }
        ],
        "reasonReference": [
          {
            "reference": "Condition/b2be37a5-c681-427e-8bcc-857067290604",
            "display": "congestive heart failure"
          }
        ],
        "dosage": {
          "text": "As prescribed per protocol",
          "route": {
            "coding": [
              {
                "system": "http://snomed.info/sct",
                "code": "47625008",
                "display": "Intravenous route"
              }
            ]
          },
          "dose": {
            "value": 1,
            "unit": "dose",
            "system": "http://unitsofmeasure.org",
            "code": "1"
          }
        }
      },
      "request": {
        "method": "PUT",
        "url": "MedicationAdministration/98b9c4b6-2155-41c2-90ba-af29a1b08f9d"
      }
    },
    {
      "resource": {
        "resourceType": "MedicationAdministration",
        "id": "86329ad0-f3ee-4d75-a1ef-2ac5abd968a3",
        "status": "completed",
        "medicationCodeableConcept": {
          "coding": [
            {
              "system": "http://www.nlm.nih.gov/research/umls/rxnorm",
              "code": "123456",
              "display": "Nitroglycerin"
            }
          ],
          "text": "Nitroglycerin"
        },
        "subject": {
          "reference": "Patient/8ed15bdf-12e4-41a3-9b18-8d9952021700",
          "display": "Aisha Nguyen"
        },
        "context": {
          "reference": "Encounter/8d4633d0-00cb-4f0b-bf47-3ef73dd670ab"
        },
        "effectiveDateTime": "2020-04-30",
        "performer": [
          {
            "actor": {
              "reference": "Practitioner/a45a9d45-8e34-4861-b1b4-d4a60c4833cc",
              "display": "Dr. Sarah Johnson"
            }
          }
        ],
        "reasonReference": [
          {
            "reference": "Condition/b2be37a5-c681-427e-8bcc-857067290604",
            "display": "congestive heart failure"
          }
        ],
        "dosage": {
          "text": "As prescribed per protocol",
          "route": {
            "coding": [
              {
                "system": "http://snomed.info/sct",
                "code": "47625008",
                "display": "Intravenous route"
              }
            ]
          },
          "dose": {
            "value": 1,
            "unit": "dose",
            "system": "http://unitsofmeasure.org",
            "code": "1"
          }
        }
      },
      "request": {
        "method": "PUT",
        "url": "MedicationAdministration/86329ad0-f3ee-4d75-a1ef-2ac5abd968a3"
      }
    },
    {
      "resource": {
        "resourceType": "Encounter",
        "id": "394044a4-b6ae-4ea2-9dfc-0d41ef1b41a7",
        "status": "finished",
        "class": {
          "system": "http://terminology.hl7.org/CodeSystem/v3-ActCode",
          "code": "AMB",
          "display": "Ambulatory"
        },
        "type": [
          {
            "coding": [
              {
                "system": "http://snomed.info/sct",
                "code": "308646001",
                "display": "Routine follow-up"
              }
            ],
            "text": "Routine follow-up"
          }
        ],
        "subject": {
          "reference": "Patient/8ed15bdf-12e4-41a3-9b18-8d9952021700",
          "display": "Aisha Nguyen"
        },
        "participant": [
          {
            "individual": {
              "reference": "Practitioner/a45a9d45-8e34-4861-b1b4-d4a60c4833cc",
              "display": "Dr. Sarah Johnson"
            }
          }
        ],
        "period": {
          "start": "2020-05-15"
        },
        "serviceProvider": {
          "reference": "Organization/6911970c-007f-483a-a8f4-9eedd1e777fa",
          "display": "Comprehensive Cancer Center"
        },
        "reasonReference": [
          {
            "reference": "Condition/b2be37a5-c681-427e-8bcc-857067290604",
            "display": "congestive heart failure"
          }
        ]
      },
      "request": {
        "method": "PUT",
        "url": "Encounter/394044a4-b6ae-4ea2-9dfc-0d41ef1b41a7"
      }
    },
    {
      "resource": {
        "resourceType": "Encounter",
        "id": "cb87468e-fcd7-4836-b4fa-9e0dfffa2c89",
        "status": "finished",
        "class": {
          "system": "http://terminology.hl7.org/CodeSystem/v3-ActCode",
          "code": "AMB",
          "display": "Ambulatory"
        },
        "type": [
          {
            "coding": [
              {
                "system": "http://snomed.info/sct",
                "code": "308646001",
                "display": "Final follow-up"
              }
            ],
            "text": "Final follow-up"
          }
        ],
        "subject": {
          "reference": "Patient/8ed15bdf-12e4-41a3-9b18-8d9952021700",
          "display": "Aisha Nguyen"
        },
        "participant": [
          {
            "individual": {
              "reference": "Practitioner/a45a9d45-8e34-4861-b1b4-d4a60c4833cc",
              "display": "Dr. Sarah Johnson"
            }
          }
        ],
        "period": {
          "start": "2020-05-30"
        },
        "serviceProvider": {
          "reference": "Organization/6911970c-007f-483a-a8f4-9eedd1e777fa",
          "display": "Comprehensive Cancer Center"
        },
        "reasonReference": [
          {
            "reference": "Condition/b2be37a5-c681-427e-8bcc-857067290604",
            "display": "congestive heart failure"
          }
        ]
      },
      "request": {
        "method": "PUT",
        "url": "Encounter/cb87468e-fcd7-4836-b4fa-9e0dfffa2c89"
      }
    },
    {
      "resource": {
        "resourceType": "DiagnosticReport",
        "status": "final",
        "category": [
          {
            "coding": [
              {
                "system": "http://terminology.hl7.org/CodeSystem/v2-0074",
                "code": "RAD",
                "display": "Radiology"
              }
            ]
          }
        ],
        "code": {
          "coding": [
            {
              "system": "http://loinc.org",
              "code": "18748-4",
              "display": "Diagnostic imaging study"
            }
          ]
        },
        "subject": {
          "reference": "Patient/8ed15bdf-12e4-41a3-9b18-8d9952021700",
          "display": "Aisha Nguyen"
        },
        "effectiveDateTime": "2020-05-15",
        "performer": [
          {
            "reference": "Practitioner/a45a9d45-8e34-4861-b1b4-d4a60c4833cc",
            "display": "Dr. Sarah Johnson"
          }
        ],
        "conclusion": "Patient shows improving status for congestive heart failure. Aisha Nguyen, a 50-year-old Asian female diagnosed with severe congestive heart failure, underwent Cardiac Catheterization, Cardiac Surgery (Coronary Artery Bypass Grafting), and is currently in Cardiac Rehabilitation. She is improving with prescribed medications and therapy."
      },
      "request": {
        "method": "POST",
        "url": "DiagnosticReport"
      }
    },
    {
      "resource": {
        "resourceType": "Observation",
        "status": "final",
        "category": [
          {
            "coding": [
              {
                "system": "http://terminology.hl7.org/CodeSystem/observation-category",
                "code": "clinical",
                "display": "Clinical"
              }
            ]
          }
        ],
        "code": {
          "coding": [
            {
              "system": "http://loinc.org",
              "code": "11323-3",
              "display": "Health status"
            }
          ]
        },
        "subject": {
          "reference": "Patient/8ed15bdf-12e4-41a3-9b18-8d9952021700",
          "display": "Aisha Nguyen"
        },
        "valueString": "improving",
        "effectiveDateTime": "2020-05-15"
      },
      "request": {
        "method": "POST",
        "url": "Observation"
      }
    }
  ]
}