{
  "resourceType": "Bundle",
  "id": "afc7de09-9ded-4ede-867b-b101c084227f",
  "type": "transaction",
  "entry": [
    {
      "resource": {
        "resourceType": "Patient",
        "id": "cdd6a38c-d58a-4bfe-b05d-3392c751cf3f",
        "name": [
          {
            "use": "official",
            "family": "Nguyen",
            "given": [
              "Aisha"
            ]
          }
        ],
        "gender": "female",
        "birthDate": "1965-09-12",
        "address": [
          {
            "use": "home",
            "line": [
              "123 Maple Avenue"
            ],
            "city": "Los Angeles",
            "state": "CA",
            "postalCode": "90001",
            "country": "USA"
          }
        ],
        "telecom": [
          {
            "system": "phone",
            "value": "(213) 555-1234",
            "use": "home"
          },
          {
            "system": "email",
            "value": "aisha.nguyen@example.com",
            "use": "home"
          }
        ],
        "extension": [
          {
            "url": "http://hl7.org/fhir/us/core/StructureDefinition/us-core-ethnicity",
            "valueString": "Asian"
          }
        ]
      },
      "request": {
        "method": "PUT",
        "url": "Patient/cdd6a38c-d58a-4bfe-b05d-3392c751cf3f"
      }
    },
    {
      "resource": {
        "resourceType": "Practitioner",
        "id": "f229edfe-fb10-455c-b17b-a0ae68ca2b1b",
        "name": [
          {
            "use": "official",
            "family": "Johnson",
            "given": [
              "Dr. Sarah"
            ],
            "prefix": [
              "Dr."
            ]
          }
        ],
        "qualification": [
          {
            "code": {
              "coding": [
                {
                  "system": "http://terminology.hl7.org/CodeSystem/v2-0360",
                  "code": "MD",
                  "display": "Doctor of Medicine"
                }
              ]
            }
          }
        ]
      },
      "request": {
        "method": "PUT",
        "url": "Practitioner/f229edfe-fb10-455c-b17b-a0ae68ca2b1b"
      }
    },
    {
      "resource": {
        "resourceType": "Organization",
        "id": "5027d635-0831-4959-a1c2-b7af70e24268",
        "name": "Comprehensive Cancer Center",
        "type": [
          {
            "coding": [
              {
                "system": "http://terminology.hl7.org/CodeSystem/organization-type",
                "code": "prov",
                "display": "Healthcare Provider"
              }
            ]
          }
        ]
      },
      "request": {
        "method": "PUT",
        "url": "Organization/5027d635-0831-4959-a1c2-b7af70e24268"
      }
    },
    {
      "resource": {
        "resourceType": "Condition",
        "id": "c1c6691d-12c8-4f62-82e8-3df5606154c8",
        "clinicalStatus": {
          "coding": [
            {
              "system": "http://terminology.hl7.org/CodeSystem/condition-clinical",
              "code": "resolved",
              "display": "Resolved"
            }
          ]
        },
        "verificationStatus": {
          "coding": [
            {
              "system": "http://terminology.hl7.org/CodeSystem/condition-ver-status",
              "code": "confirmed",
              "display": "Confirmed"
            }
          ]
        },
        "code": {
          "coding": [
            {
              "system": "http://snomed.info/sct",
              "code": "230690007",
              "display": "stroke"
            }
          ],
          "text": "stroke"
        },
        "subject": {
          "reference": "Patient/cdd6a38c-d58a-4bfe-b05d-3392c751cf3f",
          "display": "Aisha Nguyen"
        },
        "onsetDateTime": "2021-03-05",
        "recordedDate": "2021-03-06"
      },
      "request": {
        "method": "PUT",
        "url": "Condition/c1c6691d-12c8-4f62-82e8-3df5606154c8"
      }
    },
    {
      "resource": {
        "resourceType": "CarePlan",
        "id": "a1d19656-726a-4d07-a751-0b4965edfa45",
        "status": "active",
        "intent": "plan",
        "title": "Treatment plan for stroke",
        "description": "Comprehensive treatment plan including Emergency care, Stroke rehabilitation",
        "subject": {
          "reference": "Patient/cdd6a38c-d58a-4bfe-b05d-3392c751cf3f",
          "display": "Aisha Nguyen"
        },
        "period": {
          "start": "2021-03-07"
        },
        "addresses": [
          {
            "reference": "Condition/c1c6691d-12c8-4f62-82e8-3df5606154c8",
            "display": "stroke"
          }
        ],
        "author": [
          {
            "reference": "Practitioner/f229edfe-fb10-455c-b17b-a0ae68ca2b1b",
            "display": "Dr. Sarah Johnson"
          }
        ]
      },
      "request": {
        "method": "PUT",
        "url": "CarePlan/a1d19656-726a-4d07-a751-0b4965edfa45"
      }
    },
    {
      "resource": {
        "resourceType": "Encounter",
        "id": "9583c521-2553-4176-b85c-35a3a561ac79",
        "status": "finished",
        "class": {
          "system": "http://terminology.hl7.org/CodeSystem/v3-ActCode",
          "code": "AMB",
          "display": "Ambulatory"
        },
        "type": [
          {
            "coding": [
              {
                "system": "http://snomed.info/sct",
                "code": "308646001",
                "display": "Acute stroke presentation"
              }
            ],
            "text": "Acute stroke presentation"
          }
        ],
        "subject": {
          "reference": "Patient/cdd6a38c-d58a-4bfe-b05d-3392c751cf3f",
          "display": "Aisha Nguyen"
        },
        "participant": [
          {
            "individual": {
              "reference": "Practitioner/f229edfe-fb10-455c-b17b-a0ae68ca2b1b",
              "display": "Dr. Sarah Johnson"
            }
          }
        ],
        "period": {
          "start": "2021-03-07"
        },
        "serviceProvider": {
          "reference": "Organization/5027d635-0831-4959-a1c2-b7af70e24268",
          "display": "Comprehensive Cancer Center"
        },
        "reasonReference": [
          {
            "reference": "Condition/c1c6691d-12c8-4f62-82e8-3df5606154c8",
            "display": "stroke"
          }
        ]
      },
      "request": {
        "method": "PUT",
        "url": "Encounter/9583c521-2553-4176-b85c-35a3a561ac79"
      }
    },
    {
      "resource": {
        "resourceType": "Procedure",
        "id": "39b1f6a9-1764-476b-bbdc-48c3a20a830a",
        "status": "completed",
        "code": {
          "coding": [
            {
              "system": "http://snomed.info/sct",
              "code": "387713003",
              "display": "Neurological examination"
            }
          ],
          "text": "Neurological examination"
        },
        "subject": {
          "reference": "Patient/cdd6a38c-d58a-4bfe-b05d-3392c751cf3f",
          "display": "Aisha Nguyen"
        },
        "encounter": {
          "reference": "Encounter/9583c521-2553-4176-b85c-35a3a561ac79"
        },
        "performedDateTime": "2021-03-07",
        "performer": [
          {
            "actor": {
              "reference": "Practitioner/f229edfe-fb10-455c-b17b-a0ae68ca2b1b",
              "display": "Dr. Sarah Johnson"
            }
          }
        ],
        "reasonReference": [
          {
            "reference": "Condition/c1c6691d-12c8-4f62-82e8-3df5606154c8",
            "display": "stroke"
          }
        ]
      },
      "request": {
        "method": "PUT",
        "url": "Procedure/39b1f6a9-1764-476b-bbdc-48c3a20a830a"
      }
    },
    {
      "resource": {
        "resourceType": "Procedure",
        "id": "c4b23b7f-47f5-4b52-928b-96b61a37cbce",
        "status": "completed",
        "code": {
          "coding": [
            {
              "system": "http://snomed.info/sct",
              "code": "387713003",
              "display": "CT scan"
            }
          ],
          "text": "CT scan"
        },
        "subject": {
          "reference": "Patient/cdd6a38c-d58a-4bfe-b05d-3392c751cf3f",
          "display": "Aisha Nguyen"
        },
        "encounter": {
          "reference": "Encounter/9583c521-2553-4176-b85c-35a3a561ac79"
        },
        "performedDateTime": "2021-03-07",
        "performer": [
          {
            "actor": {
              "reference": "Practitioner/f229edfe-fb10-455c-b17b-a0ae68ca2b1b",
              "display": "Dr. Sarah Johnson"
            }
          }
        ],
        "reasonReference": [
          {
            "reference": "Condition/c1c6691d-12c8-4f62-82e8-3df5606154c8",
            "display": "stroke"
          }
        ]
      },
      "request": {
        "method": "PUT",
        "url": "Procedure/c4b23b7f-47f5-4b52-928b-96b61a37cbce"
      }
    },
    {
      "resource": {
        "resourceType": "MedicationAdministration",
        "id": "2146a667-a236-46c1-a706-a76d8d0736bb",
        "status": "completed",
        "medicationCodeableConcept": {
          "coding": [
            {
              "system": "http://www.nlm.nih.gov/research/umls/rxnorm",
              "code": "123456",
              "display": "tPA"
            }
          ],
          "text": "tPA"
        },
        "subject": {
          "reference": "Patient/cdd6a38c-d58a-4bfe-b05d-3392c751cf3f",
          "display": "Aisha Nguyen"
        },
        "context": {
          "reference": "Encounter/9583c521-2553-4176-b85c-35a3a561ac79"
        },
        "effectiveDateTime": "2021-03-07",
        "performer": [
          {
            "actor": {
              "reference": "Practitioner/f229edfe-fb10-455c-b17b-a0ae68ca2b1b",
              "display": "Dr. Sarah Johnson"
            }
          }
        ],
        "reasonReference": [
          {
            "reference": "Condition/c1c6691d-12c8-4f62-82e8-3df5606154c8",
            "display": "stroke"
          }
        ],
        "dosage": {
          "text": "As prescribed per protocol",
          "route": {
            "coding": [
              {
                "system": "http://snomed.info/sct",
                "code": "47625008",
                "display": "Intravenous route"
              }
            ]
          },
          "dose": {
            "value": 1,
            "unit": "dose",
            "system": "http://unitsofmeasure.org",
            "code": "1"
          }
        }
      },
      "request": {
        "method": "PUT",
        "url": "MedicationAdministration/2146a667-a236-46c1-a706-a76d8d0736bb"
      }
    },
    {
      "resource": {
        "resourceType": "MedicationAdministration",
        "id": "9faa4fec-5d7c-4f20-82d9-7d40ae7db427",
        "status": "completed",
        "medicationCodeableConcept": {
          "coding": [
            {
              "system": "http://www.nlm.nih.gov/research/umls/rxnorm",
              "code": "123456",
              "display": "Aspirin"
            }
          ],
          "text": "Aspirin"
        },
        "subject": {
          "reference": "Patient/cdd6a38c-d58a-4bfe-b05d-3392c751cf3f",
          "display": "Aisha Nguyen"
        },
        "context": {
          "reference": "Encounter/9583c521-2553-4176-b85c-35a3a561ac79"
        },
        "effectiveDateTime": "2021-03-07",
        "performer": [
          {
            "actor": {
              "reference": "Practitioner/f229edfe-fb10-455c-b17b-a0ae68ca2b1b",
              "display": "Dr. Sarah Johnson"
            }
          }
        ],
        "reasonReference": [
          {
            "reference": "Condition/c1c6691d-12c8-4f62-82e8-3df5606154c8",
            "display": "stroke"
          }
        ],
        "dosage": {
          "text": "As prescribed per protocol",
          "route": {
            "coding": [
              {
                "system": "http://snomed.info/sct",
                "code": "47625008",
                "display": "Intravenous route"
              }
            ]
          },
          "dose": {
            "value": 1,
            "unit": "dose",
            "system": "http://unitsofmeasure.org",
            "code": "1"
          }
        }
      },
      "request": {
        "method": "PUT",
        "url": "MedicationAdministration/9faa4fec-5d7c-4f20-82d9-7d40ae7db427"
      }
    },
    {
      "resource": {
        "resourceType": "Encounter",
        "id": "c3cdefc5-c811-4cdf-8ed2-63a98df1c517",
        "status": "finished",
        "class": {
          "system": "http://terminology.hl7.org/CodeSystem/v3-ActCode",
          "code": "IMP",
          "display": "Inpatient"
        },
        "type": [
          {
            "coding": [
              {
                "system": "http://snomed.info/sct",
                "code": "308646001",
                "display": "Post-stroke monitoring"
              }
            ],
            "text": "Post-stroke monitoring"
          }
        ],
        "subject": {
          "reference": "Patient/cdd6a38c-d58a-4bfe-b05d-3392c751cf3f",
          "display": "Aisha Nguyen"
        },
        "participant": [
          {
            "individual": {
              "reference": "Practitioner/f229edfe-fb10-455c-b17b-a0ae68ca2b1b",
              "display": "Dr. Sarah Johnson"
            }
          }
        ],
        "period": {
          "start": "2021-03-10"
        },
        "serviceProvider": {
          "reference": "Organization/5027d635-0831-4959-a1c2-b7af70e24268",
          "display": "Comprehensive Cancer Center"
        },
        "reasonReference": [
          {
            "reference": "Condition/c1c6691d-12c8-4f62-82e8-3df5606154c8",
            "display": "stroke"
          }
        ]
      },
      "request": {
        "method": "PUT",
        "url": "Encounter/c3cdefc5-c811-4cdf-8ed2-63a98df1c517"
      }
    },
    {
      "resource": {
        "resourceType": "Procedure",
        "id": "2e7d43f3-a56a-4b6f-ac42-5d1c4845d7d8",
        "status": "completed",
        "code": {
          "coding": [
            {
              "system": "http://snomed.info/sct",
              "code": "387713003",
              "display": "Vitals monitoring"
            }
          ],
          "text": "Vitals monitoring"
        },
        "subject": {
          "reference": "Patient/cdd6a38c-d58a-4bfe-b05d-3392c751cf3f",
          "display": "Aisha Nguyen"
        },
        "encounter": {
          "reference": "Encounter/c3cdefc5-c811-4cdf-8ed2-63a98df1c517"
        },
        "performedDateTime": "2021-03-10",
        "performer": [
          {
            "actor": {
              "reference": "Practitioner/f229edfe-fb10-455c-b17b-a0ae68ca2b1b",
              "display": "Dr. Sarah Johnson"
            }
          }
        ],
        "reasonReference": [
          {
            "reference": "Condition/c1c6691d-12c8-4f62-82e8-3df5606154c8",
            "display": "stroke"
          }
        ]
      },
      "request": {
        "method": "PUT",
        "url": "Procedure/2e7d43f3-a56a-4b6f-ac42-5d1c4845d7d8"
      }
    },
    {
      "resource": {
        "resourceType": "Procedure",
        "id": "fa913c1a-6b70-4bcb-a2c0-073b008e8b5e",
        "status": "completed",
        "code": {
          "coding": [
            {
              "system": "http://snomed.info/sct",
              "code": "387713003",
              "display": "Physical therapy"
            }
          ],
          "text": "Physical therapy"
        },
        "subject": {
          "reference": "Patient/cdd6a38c-d58a-4bfe-b05d-3392c751cf3f",
          "display": "Aisha Nguyen"
        },
        "encounter": {
          "reference": "Encounter/c3cdefc5-c811-4cdf-8ed2-63a98df1c517"
        },
        "performedDateTime": "2021-03-10",
        "performer": [
          {
            "actor": {
              "reference": "Practitioner/f229edfe-fb10-455c-b17b-a0ae68ca2b1b",
              "display": "Dr. Sarah Johnson"
            }
          }
        ],
        "reasonReference": [
          {
            "reference": "Condition/c1c6691d-12c8-4f62-82e8-3df5606154c8",
            "display": "stroke"
          }
        ]
      },
      "request": {
        "method": "PUT",
        "url": "Procedure/fa913c1a-6b70-4bcb-a2c0-073b008e8b5e"
      }
    },
    {
      "resource": {
        "resourceType": "MedicationAdministration",
        "id": "48225134-86e0-4f8d-ba26-a84fcf15f93d",
        "status": "completed",
        "medicationCodeableConcept": {
          "coding": [
            {
              "system": "http://www.nlm.nih.gov/research/umls/rxnorm",
              "code": "123456",
              "display": "Anticoagulants"
            }
          ],
          "text": "Anticoagulants"
        },
        "subject": {
          "reference": "Patient/cdd6a38c-d58a-4bfe-b05d-3392c751cf3f",
          "display": "Aisha Nguyen"
        },
        "context": {
          "reference": "Encounter/c3cdefc5-c811-4cdf-8ed2-63a98df1c517"
        },
        "effectiveDateTime": "2021-03-10",
        "performer": [
          {
            "actor": {
              "reference": "Practitioner/f229edfe-fb10-455c-b17b-a0ae68ca2b1b",
              "display": "Dr. Sarah Johnson"
            }
          }
        ],
        "reasonReference": [
          {
            "reference": "Condition/c1c6691d-12c8-4f62-82e8-3df5606154c8",
            "display": "stroke"
          }
        ],
        "dosage": {
          "text": "As prescribed per protocol",
          "route": {
            "coding": [
              {
                "system": "http://snomed.info/sct",
                "code": "47625008",
                "display": "Intravenous route"
              }
            ]
          },
          "dose": {
            "value": 1,
            "unit": "dose",
            "system": "http://unitsofmeasure.org",
            "code": "1"
          }
        }
      },
      "request": {
        "method": "PUT",
        "url": "MedicationAdministration/48225134-86e0-4f8d-ba26-a84fcf15f93d"
      }
    },
    {
      "resource": {
        "resourceType": "MedicationAdministration",
        "id": "9a22b740-4d5a-42d8-89af-704969c81fc2",
        "status": "completed",
        "medicationCodeableConcept": {
          "coding": [
            {
              "system": "http://www.nlm.nih.gov/research/umls/rxnorm",
              "code": "123456",
              "display": "Statins"
            }
          ],
          "text": "Statins"
        },
        "subject": {
          "reference": "Patient/cdd6a38c-d58a-4bfe-b05d-3392c751cf3f",
          "display": "Aisha Nguyen"
        },
        "context": {
          "reference": "Encounter/c3cdefc5-c811-4cdf-8ed2-63a98df1c517"
        },
        "effectiveDateTime": "2021-03-10",
        "performer": [
          {
            "actor": {
              "reference": "Practitioner/f229edfe-fb10-455c-b17b-a0ae68ca2b1b",
              "display": "Dr. Sarah Johnson"
            }
          }
        ],
        "reasonReference": [
          {
            "reference": "Condition/c1c6691d-12c8-4f62-82e8-3df5606154c8",
            "display": "stroke"
          }
        ],
        "dosage": {
          "text": "As prescribed per protocol",
          "route": {
            "coding": [
              {
                "system": "http://snomed.info/sct",
                "code": "47625008",
                "display": "Intravenous route"
              }
            ]
          },
          "dose": {
            "value": 1,
            "unit": "dose",
            "system": "http://unitsofmeasure.org",
            "code": "1"
          }
        }
      },
      "request": {
        "method": "PUT",
        "url": "MedicationAdministration/9a22b740-4d5a-42d8-89af-704969c81fc2"
      }
    },
    {
      "resource": {
        "resourceType": "Encounter",
        "id": "0c49c7ba-2407-434c-80e4-cdc76c7689bf",
        "status": "finished",
        "class": {
          "system": "http://terminology.hl7.org/CodeSystem/v3-ActCode",
          "code": "AMB",
          "display": "Ambulatory"
        },
        "type": [
          {
            "coding": [
              {
                "system": "http://snomed.info/sct",
                "code": "308646001",
                "display": "Medication review"
              }
            ],
            "text": "Medication review"
          }
        ],
        "subject": {
          "reference": "Patient/cdd6a38c-d58a-4bfe-b05d-3392c751cf3f",
          "display": "Aisha Nguyen"
        },
        "participant": [
          {
            "individual": {
              "reference": "Practitioner/f229edfe-fb10-455c-b17b-a0ae68ca2b1b",
              "display": "Dr. Sarah Johnson"
            }
          }
        ],
        "period": {
          "start": "2021-03-15"
        },
        "serviceProvider": {
          "reference": "Organization/5027d635-0831-4959-a1c2-b7af70e24268",
          "display": "Comprehensive Cancer Center"
        },
        "reasonReference": [
          {
            "reference": "Condition/c1c6691d-12c8-4f62-82e8-3df5606154c8",
            "display": "stroke"
          }
        ]
      },
      "request": {
        "method": "PUT",
        "url": "Encounter/0c49c7ba-2407-434c-80e4-cdc76c7689bf"
      }
    },
    {
      "resource": {
        "resourceType": "Procedure",
        "id": "29bc3719-ce01-4bf7-b949-6905d4b02b63",
        "status": "completed",
        "code": {
          "coding": [
            {
              "system": "http://snomed.info/sct",
              "code": "387713003",
              "display": "Blood tests"
            }
          ],
          "text": "Blood tests"
        },
        "subject": {
          "reference": "Patient/cdd6a38c-d58a-4bfe-b05d-3392c751cf3f",
          "display": "Aisha Nguyen"
        },
        "encounter": {
          "reference": "Encounter/0c49c7ba-2407-434c-80e4-cdc76c7689bf"
        },
        "performedDateTime": "2021-03-15",
        "performer": [
          {
            "actor": {
              "reference": "Practitioner/f229edfe-fb10-455c-b17b-a0ae68ca2b1b",
              "display": "Dr. Sarah Johnson"
            }
          }
        ],
        "reasonReference": [
          {
            "reference": "Condition/c1c6691d-12c8-4f62-82e8-3df5606154c8",
            "display": "stroke"
          }
        ]
      },
      "request": {
        "method": "PUT",
        "url": "Procedure/29bc3719-ce01-4bf7-b949-6905d4b02b63"
      }
    },
    {
      "resource": {
        "resourceType": "Procedure",
        "id": "fb6c55d1-83db-48b0-9602-b504dee08cae",
        "status": "completed",
        "code": {
          "coding": [
            {
              "system": "http://snomed.info/sct",
              "code": "387713003",
              "display": "EKG"
            }
          ],
          "text": "EKG"
        },
        "subject": {
          "reference": "Patient/cdd6a38c-d58a-4bfe-b05d-3392c751cf3f",
          "display": "Aisha Nguyen"
        },
        "encounter": {
          "reference": "Encounter/0c49c7ba-2407-434c-80e4-cdc76c7689bf"
        },
        "performedDateTime": "2021-03-15",
        "performer": [
          {
            "actor": {
              "reference": "Practitioner/f229edfe-fb10-455c-b17b-a0ae68ca2b1b",
              "display": "Dr. Sarah Johnson"
            }
          }
        ],
        "reasonReference": [
          {
            "reference": "Condition/c1c6691d-12c8-4f62-82e8-3df5606154c8",
            "display": "stroke"
          }
        ]
      },
      "request": {
        "method": "PUT",
        "url": "Procedure/fb6c55d1-83db-48b0-9602-b504dee08cae"
      }
    },
    {
      "resource": {
        "resourceType": "MedicationAdministration",
        "id": "c18509fb-f3ae-4f88-ad27-1b9f349907c2",
        "status": "completed",
        "medicationCodeableConcept": {
          "coding": [
            {
              "system": "http://www.nlm.nih.gov/research/umls/rxnorm",
              "code": "123456",
              "display": "Antiplatelets"
            }
          ],
          "text": "Antiplatelets"
        },
        "subject": {
          "reference": "Patient/cdd6a38c-d58a-4bfe-b05d-3392c751cf3f",
          "display": "Aisha Nguyen"
        },
        "context": {
          "reference": "Encounter/0c49c7ba-2407-434c-80e4-cdc76c7689bf"
        },
        "effectiveDateTime": "2021-03-15",
        "performer": [
          {
            "actor": {
              "reference": "Practitioner/f229edfe-fb10-455c-b17b-a0ae68ca2b1b",
              "display": "Dr. Sarah Johnson"
            }
          }
        ],
        "reasonReference": [
          {
            "reference": "Condition/c1c6691d-12c8-4f62-82e8-3df5606154c8",
            "display": "stroke"
          }
        ],
        "dosage": {
          "text": "As prescribed per protocol",
          "route": {
            "coding": [
              {
                "system": "http://snomed.info/sct",
                "code": "47625008",
                "display": "Intravenous route"
              }
            ]
          },
          "dose": {
            "value": 1,
            "unit": "dose",
            "system": "http://unitsofmeasure.org",
            "code": "1"
          }
        }
      },
      "request": {
        "method": "PUT",
        "url": "MedicationAdministration/c18509fb-f3ae-4f88-ad27-1b9f349907c2"
      }
    },
    {
      "resource": {
        "resourceType": "MedicationAdministration",
        "id": "01bf6316-523a-4e87-b407-6a16aba220f8",
        "status": "completed",
        "medicationCodeableConcept": {
          "coding": [
            {
              "system": "http://www.nlm.nih.gov/research/umls/rxnorm",
              "code": "123456",
              "display": "Beta-blockers"
            }
          ],
          "text": "Beta-blockers"
        },
        "subject": {
          "reference": "Patient/cdd6a38c-d58a-4bfe-b05d-3392c751cf3f",
          "display": "Aisha Nguyen"
        },
        "context": {
          "reference": "Encounter/0c49c7ba-2407-434c-80e4-cdc76c7689bf"
        },
        "effectiveDateTime": "2021-03-15",
        "performer": [
          {
            "actor": {
              "reference": "Practitioner/f229edfe-fb10-455c-b17b-a0ae68ca2b1b",
              "display": "Dr. Sarah Johnson"
            }
          }
        ],
        "reasonReference": [
          {
            "reference": "Condition/c1c6691d-12c8-4f62-82e8-3df5606154c8",
            "display": "stroke"
          }
        ],
        "dosage": {
          "text": "As prescribed per protocol",
          "route": {
            "coding": [
              {
                "system": "http://snomed.info/sct",
                "code": "47625008",
                "display": "Intravenous route"
              }
            ]
          },
          "dose": {
            "value": 1,
            "unit": "dose",
            "system": "http://unitsofmeasure.org",
            "code": "1"
          }
        }
      },
      "request": {
        "method": "PUT",
        "url": "MedicationAdministration/01bf6316-523a-4e87-b407-6a16aba220f8"
      }
    },
    {
      "resource": {
        "resourceType": "Encounter",
        "id": "8239e296-91c9-42a8-a5cd-40233db7abbd",
        "status": "finished",
        "class": {
          "system": "http://terminology.hl7.org/CodeSystem/v3-ActCode",
          "code": "AMB",
          "display": "Ambulatory"
        },
        "type": [
          {
            "coding": [
              {
                "system": "http://snomed.info/sct",
                "code": "308646001",
                "display": "Physical therapy session"
              }
            ],
            "text": "Physical therapy session"
          }
        ],
        "subject": {
          "reference": "Patient/cdd6a38c-d58a-4bfe-b05d-3392c751cf3f",
          "display": "Aisha Nguyen"
        },
        "participant": [
          {
            "individual": {
              "reference": "Practitioner/f229edfe-fb10-455c-b17b-a0ae68ca2b1b",
              "display": "Dr. Sarah Johnson"
            }
          }
        ],
        "period": {
          "start": "2021-03-20"
        },
        "serviceProvider": {
          "reference": "Organization/5027d635-0831-4959-a1c2-b7af70e24268",
          "display": "Comprehensive Cancer Center"
        },
        "reasonReference": [
          {
            "reference": "Condition/c1c6691d-12c8-4f62-82e8-3df5606154c8",
            "display": "stroke"
          }
        ]
      },
      "request": {
        "method": "PUT",
        "url": "Encounter/8239e296-91c9-42a8-a5cd-40233db7abbd"
      }
    },
    {
      "resource": {
        "resourceType": "Procedure",
        "id": "4715eea1-ef87-4033-8bf4-73f690c2419e",
        "status": "completed",
        "code": {
          "coding": [
            {
              "system": "http://snomed.info/sct",
              "code": "387713003",
              "display": "Occupational therapy"
            }
          ],
          "text": "Occupational therapy"
        },
        "subject": {
          "reference": "Patient/cdd6a38c-d58a-4bfe-b05d-3392c751cf3f",
          "display": "Aisha Nguyen"
        },
        "encounter": {
          "reference": "Encounter/8239e296-91c9-42a8-a5cd-40233db7abbd"
        },
        "performedDateTime": "2021-03-20",
        "performer": [
          {
            "actor": {
              "reference": "Practitioner/f229edfe-fb10-455c-b17b-a0ae68ca2b1b",
              "display": "Dr. Sarah Johnson"
            }
          }
        ],
        "reasonReference": [
          {
            "reference": "Condition/c1c6691d-12c8-4f62-82e8-3df5606154c8",
            "display": "stroke"
          }
        ]
      },
      "request": {
        "method": "PUT",
        "url": "Procedure/4715eea1-ef87-4033-8bf4-73f690c2419e"
      }
    },
    {
      "resource": {
        "resourceType": "Procedure",
        "id": "97ec4ac3-060f-496f-8c89-e9f3481889f8",
        "status": "completed",
        "code": {
          "coding": [
            {
              "system": "http://snomed.info/sct",
              "code": "387713003",
              "display": "Speech therapy"
            }
          ],
          "text": "Speech therapy"
        },
        "subject": {
          "reference": "Patient/cdd6a38c-d58a-4bfe-b05d-3392c751cf3f",
          "display": "Aisha Nguyen"
        },
        "encounter": {
          "reference": "Encounter/8239e296-91c9-42a8-a5cd-40233db7abbd"
        },
        "performedDateTime": "2021-03-20",
        "performer": [
          {
            "actor": {
              "reference": "Practitioner/f229edfe-fb10-455c-b17b-a0ae68ca2b1b",
              "display": "Dr. Sarah Johnson"
            }
          }
        ],
        "reasonReference": [
          {
            "reference": "Condition/c1c6691d-12c8-4f62-82e8-3df5606154c8",
            "display": "stroke"
          }
        ]
      },
      "request": {
        "method": "PUT",
        "url": "Procedure/97ec4ac3-060f-496f-8c89-e9f3481889f8"
      }
    },
    {
      "resource": {
        "resourceType": "MedicationAdministration",
        "id": "9fe4af6b-64ff-418a-91f7-951e8bf4f822",
        "status": "completed",
        "medicationCodeableConcept": {
          "coding": [
            {
              "system": "http://www.nlm.nih.gov/research/umls/rxnorm",
              "code": "123456",
              "display": "Muscle relaxants"
            }
          ],
          "text": "Muscle relaxants"
        },
        "subject": {
          "reference": "Patient/cdd6a38c-d58a-4bfe-b05d-3392c751cf3f",
          "display": "Aisha Nguyen"
        },
        "context": {
          "reference": "Encounter/8239e296-91c9-42a8-a5cd-40233db7abbd"
        },
        "effectiveDateTime": "2021-03-20",
        "performer": [
          {
            "actor": {
              "reference": "Practitioner/f229edfe-fb10-455c-b17b-a0ae68ca2b1b",
              "display": "Dr. Sarah Johnson"
            }
          }
        ],
        "reasonReference": [
          {
            "reference": "Condition/c1c6691d-12c8-4f62-82e8-3df5606154c8",
            "display": "stroke"
          }
        ],
        "dosage": {
          "text": "As prescribed per protocol",
          "route": {
            "coding": [
              {
                "system": "http://snomed.info/sct",
                "code": "47625008",
                "display": "Intravenous route"
              }
            ]
          },
          "dose": {
            "value": 1,
            "unit": "dose",
            "system": "http://unitsofmeasure.org",
            "code": "1"
          }
        }
      },
      "request": {
        "method": "PUT",
        "url": "MedicationAdministration/9fe4af6b-64ff-418a-91f7-951e8bf4f822"
      }
    },
    {
      "resource": {
        "resourceType": "MedicationAdministration",
        "id": "be3dee5f-7b97-4683-acea-197ebe26235f",
        "status": "completed",
        "medicationCodeableConcept": {
          "coding": [
            {
              "system": "http://www.nlm.nih.gov/research/umls/rxnorm",
              "code": "123456",
              "display": "Pain relievers"
            }
          ],
          "text": "Pain relievers"
        },
        "subject": {
          "reference": "Patient/cdd6a38c-d58a-4bfe-b05d-3392c751cf3f",
          "display": "Aisha Nguyen"
        },
        "context": {
          "reference": "Encounter/8239e296-91c9-42a8-a5cd-40233db7abbd"
        },
        "effectiveDateTime": "2021-03-20",
        "performer": [
          {
            "actor": {
              "reference": "Practitioner/f229edfe-fb10-455c-b17b-a0ae68ca2b1b",
              "display": "Dr. Sarah Johnson"
            }
          }
        ],
        "reasonReference": [
          {
            "reference": "Condition/c1c6691d-12c8-4f62-82e8-3df5606154c8",
            "display": "stroke"
          }
        ],
        "dosage": {
          "text": "As prescribed per protocol",
          "route": {
            "coding": [
              {
                "system": "http://snomed.info/sct",
                "code": "47625008",
                "display": "Intravenous route"
              }
            ]
          },
          "dose": {
            "value": 1,
            "unit": "dose",
            "system": "http://unitsofmeasure.org",
            "code": "1"
          }
        }
      },
      "request": {
        "method": "PUT",
        "url": "MedicationAdministration/be3dee5f-7b97-4683-acea-197ebe26235f"
      }
    },
    {
      "resource": {
        "resourceType": "Encounter",
        "id": "75b1dd05-5ccf-4b73-b339-e449f3adcdcc",
        "status": "finished",
        "class": {
          "system": "http://terminology.hl7.org/CodeSystem/v3-ActCode",
          "code": "AMB",
          "display": "Ambulatory"
        },
        "type": [
          {
            "coding": [
              {
                "system": "http://snomed.info/sct",
                "code": "308646001",
                "display": "Follow-up assessment"
              }
            ],
            "text": "Follow-up assessment"
          }
        ],
        "subject": {
          "reference": "Patient/cdd6a38c-d58a-4bfe-b05d-3392c751cf3f",
          "display": "Aisha Nguyen"
        },
        "participant": [
          {
            "individual": {
              "reference": "Practitioner/f229edfe-fb10-455c-b17b-a0ae68ca2b1b",
              "display": "Dr. Sarah Johnson"
            }
          }
        ],
        "period": {
          "start": "2021-04-05"
        },
        "serviceProvider": {
          "reference": "Organization/5027d635-0831-4959-a1c2-b7af70e24268",
          "display": "Comprehensive Cancer Center"
        },
        "reasonReference": [
          {
            "reference": "Condition/c1c6691d-12c8-4f62-82e8-3df5606154c8",
            "display": "stroke"
          }
        ]
      },
      "request": {
        "method": "PUT",
        "url": "Encounter/75b1dd05-5ccf-4b73-b339-e449f3adcdcc"
      }
    },
    {
      "resource": {
        "resourceType": "Procedure",
        "id": "171a75a4-d8f1-4d6e-8f84-03a810dfcb46",
        "status": "completed",
        "code": {
          "coding": [
            {
              "system": "http://snomed.info/sct",
              "code": "387713003",
              "display": "Neurological assessment"
            }
          ],
          "text": "Neurological assessment"
        },
        "subject": {
          "reference": "Patient/cdd6a38c-d58a-4bfe-b05d-3392c751cf3f",
          "display": "Aisha Nguyen"
        },
        "encounter": {
          "reference": "Encounter/75b1dd05-5ccf-4b73-b339-e449f3adcdcc"
        },
        "performedDateTime": "2021-04-05",
        "performer": [
          {
            "actor": {
              "reference": "Practitioner/f229edfe-fb10-455c-b17b-a0ae68ca2b1b",
              "display": "Dr. Sarah Johnson"
            }
          }
        ],
        "reasonReference": [
          {
            "reference": "Condition/c1c6691d-12c8-4f62-82e8-3df5606154c8",
            "display": "stroke"
          }
        ]
      },
      "request": {
        "method": "PUT",
        "url": "Procedure/171a75a4-d8f1-4d6e-8f84-03a810dfcb46"
      }
    },
    {
      "resource": {
        "resourceType": "Procedure",
        "id": "9ef4b884-9d47-431d-91a7-e00abeab5430",
        "status": "completed",
        "code": {
          "coding": [
            {
              "system": "http://snomed.info/sct",
              "code": "387713003",
              "display": "MRI"
            }
          ],
          "text": "MRI"
        },
        "subject": {
          "reference": "Patient/cdd6a38c-d58a-4bfe-b05d-3392c751cf3f",
          "display": "Aisha Nguyen"
        },
        "encounter": {
          "reference": "Encounter/75b1dd05-5ccf-4b73-b339-e449f3adcdcc"
        },
        "performedDateTime": "2021-04-05",
        "performer": [
          {
            "actor": {
              "reference": "Practitioner/f229edfe-fb10-455c-b17b-a0ae68ca2b1b",
              "display": "Dr. Sarah Johnson"
            }
          }
        ],
        "reasonReference": [
          {
            "reference": "Condition/c1c6691d-12c8-4f62-82e8-3df5606154c8",
            "display": "stroke"
          }
        ]
      },
      "request": {
        "method": "PUT",
        "url": "Procedure/9ef4b884-9d47-431d-91a7-e00abeab5430"
      }
    },
    {
      "resource": {
        "resourceType": "MedicationAdministration",
        "id": "1700c73b-45f1-485d-9dc6-5adf3c45193a",
        "status": "completed",
        "medicationCodeableConcept": {
          "coding": [
            {
              "system": "http://www.nlm.nih.gov/research/umls/rxnorm",
              "code": "123456",
              "display": "Antidepressants"
            }
          ],
          "text": "Antidepressants"
        },
        "subject": {
          "reference": "Patient/cdd6a38c-d58a-4bfe-b05d-3392c751cf3f",
          "display": "Aisha Nguyen"
        },
        "context": {
          "reference": "Encounter/75b1dd05-5ccf-4b73-b339-e449f3adcdcc"
        },
        "effectiveDateTime": "2021-04-05",
        "performer": [
          {
            "actor": {
              "reference": "Practitioner/f229edfe-fb10-455c-b17b-a0ae68ca2b1b",
              "display": "Dr. Sarah Johnson"
            }
          }
        ],
        "reasonReference": [
          {
            "reference": "Condition/c1c6691d-12c8-4f62-82e8-3df5606154c8",
            "display": "stroke"
          }
        ],
        "dosage": {
          "text": "As prescribed per protocol",
          "route": {
            "coding": [
              {
                "system": "http://snomed.info/sct",
                "code": "47625008",
                "display": "Intravenous route"
              }
            ]
          },
          "dose": {
            "value": 1,
            "unit": "dose",
            "system": "http://unitsofmeasure.org",
            "code": "1"
          }
        }
      },
      "request": {
        "method": "PUT",
        "url": "MedicationAdministration/1700c73b-45f1-485d-9dc6-5adf3c45193a"
      }
    },
    {
      "resource": {
        "resourceType": "MedicationAdministration",
        "id": "bf70cbb5-a038-4c95-bc37-03f6ada38bc8",
        "status": "completed",
        "medicationCodeableConcept": {
          "coding": [
            {
              "system": "http://www.nlm.nih.gov/research/umls/rxnorm",
              "code": "123456",
              "display": "Anxiolytics"
            }
          ],
          "text": "Anxiolytics"
        },
        "subject": {
          "reference": "Patient/cdd6a38c-d58a-4bfe-b05d-3392c751cf3f",
          "display": "Aisha Nguyen"
        },
        "context": {
          "reference": "Encounter/75b1dd05-5ccf-4b73-b339-e449f3adcdcc"
        },
        "effectiveDateTime": "2021-04-05",
        "performer": [
          {
            "actor": {
              "reference": "Practitioner/f229edfe-fb10-455c-b17b-a0ae68ca2b1b",
              "display": "Dr. Sarah Johnson"
            }
          }
        ],
        "reasonReference": [
          {
            "reference": "Condition/c1c6691d-12c8-4f62-82e8-3df5606154c8",
            "display": "stroke"
          }
        ],
        "dosage": {
          "text": "As prescribed per protocol",
          "route": {
            "coding": [
              {
                "system": "http://snomed.info/sct",
                "code": "47625008",
                "display": "Intravenous route"
              }
            ]
          },
          "dose": {
            "value": 1,
            "unit": "dose",
            "system": "http://unitsofmeasure.org",
            "code": "1"
          }
        }
      },
      "request": {
        "method": "PUT",
        "url": "MedicationAdministration/bf70cbb5-a038-4c95-bc37-03f6ada38bc8"
      }
    },
    {
      "resource": {
        "resourceType": "Encounter",
        "id": "44f1563b-bb88-4348-91c3-3ae9d13242d1",
        "status": "finished",
        "class": {
          "system": "http://terminology.hl7.org/CodeSystem/v3-ActCode",
          "code": "AMB",
          "display": "Ambulatory"
        },
        "type": [
          {
            "coding": [
              {
                "system": "http://snomed.info/sct",
                "code": "308646001",
                "display": "Rehabilitation progress"
              }
            ],
            "text": "Rehabilitation progress"
          }
        ],
        "subject": {
          "reference": "Patient/cdd6a38c-d58a-4bfe-b05d-3392c751cf3f",
          "display": "Aisha Nguyen"
        },
        "participant": [
          {
            "individual": {
              "reference": "Practitioner/f229edfe-fb10-455c-b17b-a0ae68ca2b1b",
              "display": "Dr. Sarah Johnson"
            }
          }
        ],
        "period": {
          "start": "2021-04-15"
        },
        "serviceProvider": {
          "reference": "Organization/5027d635-0831-4959-a1c2-b7af70e24268",
          "display": "Comprehensive Cancer Center"
        },
        "reasonReference": [
          {
            "reference": "Condition/c1c6691d-12c8-4f62-82e8-3df5606154c8",
            "display": "stroke"
          }
        ]
      },
      "request": {
        "method": "PUT",
        "url": "Encounter/44f1563b-bb88-4348-91c3-3ae9d13242d1"
      }
    },
    {
      "resource": {
        "resourceType": "Procedure",
        "id": "a018c4e8-19e1-4b70-be6a-3393eef83ef6",
        "status": "completed",
        "code": {
          "coding": [
            {
              "system": "http://snomed.info/sct",
              "code": "387713003",
              "display": "Gait analysis"
            }
          ],
          "text": "Gait analysis"
        },
        "subject": {
          "reference": "Patient/cdd6a38c-d58a-4bfe-b05d-3392c751cf3f",
          "display": "Aisha Nguyen"
        },
        "encounter": {
          "reference": "Encounter/44f1563b-bb88-4348-91c3-3ae9d13242d1"
        },
        "performedDateTime": "2021-04-15",
        "performer": [
          {
            "actor": {
              "reference": "Practitioner/f229edfe-fb10-455c-b17b-a0ae68ca2b1b",
              "display": "Dr. Sarah Johnson"
            }
          }
        ],
        "reasonReference": [
          {
            "reference": "Condition/c1c6691d-12c8-4f62-82e8-3df5606154c8",
            "display": "stroke"
          }
        ]
      },
      "request": {
        "method": "PUT",
        "url": "Procedure/a018c4e8-19e1-4b70-be6a-3393eef83ef6"
      }
    },
    {
      "resource": {
        "resourceType": "Procedure",
        "id": "556e7a88-7b85-4562-a449-7cb85bf3bdea",
        "status": "completed",
        "code": {
          "coding": [
            {
              "system": "http://snomed.info/sct",
              "code": "387713003",
              "display": "Balance training"
            }
          ],
          "text": "Balance training"
        },
        "subject": {
          "reference": "Patient/cdd6a38c-d58a-4bfe-b05d-3392c751cf3f",
          "display": "Aisha Nguyen"
        },
        "encounter": {
          "reference": "Encounter/44f1563b-bb88-4348-91c3-3ae9d13242d1"
        },
        "performedDateTime": "2021-04-15",
        "performer": [
          {
            "actor": {
              "reference": "Practitioner/f229edfe-fb10-455c-b17b-a0ae68ca2b1b",
              "display": "Dr. Sarah Johnson"
            }
          }
        ],
        "reasonReference": [
          {
            "reference": "Condition/c1c6691d-12c8-4f62-82e8-3df5606154c8",
            "display": "stroke"
          }
        ]
      },
      "request": {
        "method": "PUT",
        "url": "Procedure/556e7a88-7b85-4562-a449-7cb85bf3bdea"
      }
    },
    {
      "resource": {
        "resourceType": "MedicationAdministration",
        "id": "76b9629d-aff9-4de5-aea3-0d2ed29ac988",
        "status": "completed",
        "medicationCodeableConcept": {
          "coding": [
            {
              "system": "http://www.nlm.nih.gov/research/umls/rxnorm",
              "code": "123456",
              "display": "Antispasmodics"
            }
          ],
          "text": "Antispasmodics"
        },
        "subject": {
          "reference": "Patient/cdd6a38c-d58a-4bfe-b05d-3392c751cf3f",
          "display": "Aisha Nguyen"
        },
        "context": {
          "reference": "Encounter/44f1563b-bb88-4348-91c3-3ae9d13242d1"
        },
        "effectiveDateTime": "2021-04-15",
        "performer": [
          {
            "actor": {
              "reference": "Practitioner/f229edfe-fb10-455c-b17b-a0ae68ca2b1b",
              "display": "Dr. Sarah Johnson"
            }
          }
        ],
        "reasonReference": [
          {
            "reference": "Condition/c1c6691d-12c8-4f62-82e8-3df5606154c8",
            "display": "stroke"
          }
        ],
        "dosage": {
          "text": "As prescribed per protocol",
          "route": {
            "coding": [
              {
                "system": "http://snomed.info/sct",
                "code": "47625008",
                "display": "Intravenous route"
              }
            ]
          },
          "dose": {
            "value": 1,
            "unit": "dose",
            "system": "http://unitsofmeasure.org",
            "code": "1"
          }
        }
      },
      "request": {
        "method": "PUT",
        "url": "MedicationAdministration/76b9629d-aff9-4de5-aea3-0d2ed29ac988"
      }
    },
    {
      "resource": {
        "resourceType": "MedicationAdministration",
        "id": "fa67b905-9e18-4639-84eb-fed88f8d3277",
        "status": "completed",
        "medicationCodeableConcept": {
          "coding": [
            {
              "system": "http://www.nlm.nih.gov/research/umls/rxnorm",
              "code": "123456",
              "display": "Stimulants"
            }
          ],
          "text": "Stimulants"
        },
        "subject": {
          "reference": "Patient/cdd6a38c-d58a-4bfe-b05d-3392c751cf3f",
          "display": "Aisha Nguyen"
        },
        "context": {
          "reference": "Encounter/44f1563b-bb88-4348-91c3-3ae9d13242d1"
        },
        "effectiveDateTime": "2021-04-15",
        "performer": [
          {
            "actor": {
              "reference": "Practitioner/f229edfe-fb10-455c-b17b-a0ae68ca2b1b",
              "display": "Dr. Sarah Johnson"
            }
          }
        ],
        "reasonReference": [
          {
            "reference": "Condition/c1c6691d-12c8-4f62-82e8-3df5606154c8",
            "display": "stroke"
          }
        ],
        "dosage": {
          "text": "As prescribed per protocol",
          "route": {
            "coding": [
              {
                "system": "http://snomed.info/sct",
                "code": "47625008",
                "display": "Intravenous route"
              }
            ]
          },
          "dose": {
            "value": 1,
            "unit": "dose",
            "system": "http://unitsofmeasure.org",
            "code": "1"
          }
        }
      },
      "request": {
        "method": "PUT",
        "url": "MedicationAdministration/fa67b905-9e18-4639-84eb-fed88f8d3277"
      }
    },
    {
      "resource": {
        "resourceType": "Encounter",
        "id": "435b044d-3c05-4f10-8280-a03b49aa54f2",
        "status": "finished",
        "class": {
          "system": "http://terminology.hl7.org/CodeSystem/v3-ActCode",
          "code": "AMB",
          "display": "Ambulatory"
        },
        "type": [
          {
            "coding": [
              {
                "system": "http://snomed.info/sct",
                "code": "308646001",
                "display": "Post-rehabilitation check-up"
              }
            ],
            "text": "Post-rehabilitation check-up"
          }
        ],
        "subject": {
          "reference": "Patient/cdd6a38c-d58a-4bfe-b05d-3392c751cf3f",
          "display": "Aisha Nguyen"
        },
        "participant": [
          {
            "individual": {
              "reference": "Practitioner/f229edfe-fb10-455c-b17b-a0ae68ca2b1b",
              "display": "Dr. Sarah Johnson"
            }
          }
        ],
        "period": {
          "start": "2021-04-20"
        },
        "serviceProvider": {
          "reference": "Organization/5027d635-0831-4959-a1c2-b7af70e24268",
          "display": "Comprehensive Cancer Center"
        },
        "reasonReference": [
          {
            "reference": "Condition/c1c6691d-12c8-4f62-82e8-3df5606154c8",
            "display": "stroke"
          }
        ]
      },
      "request": {
        "method": "PUT",
        "url": "Encounter/435b044d-3c05-4f10-8280-a03b49aa54f2"
      }
    },
    {
      "resource": {
        "resourceType": "Encounter",
        "id": "dc05569d-5959-4315-8bf5-12d1eb0fb2ef",
        "status": "finished",
        "class": {
          "system": "http://terminology.hl7.org/CodeSystem/v3-ActCode",
          "code": "AMB",
          "display": "Ambulatory"
        },
        "type": [
          {
            "coding": [
              {
                "system": "http://snomed.info/sct",
                "code": "308646001",
                "display": "Medication adjustment"
              }
            ],
            "text": "Medication adjustment"
          }
        ],
        "subject": {
          "reference": "Patient/cdd6a38c-d58a-4bfe-b05d-3392c751cf3f",
          "display": "Aisha Nguyen"
        },
        "participant": [
          {
            "individual": {
              "reference": "Practitioner/f229edfe-fb10-455c-b17b-a0ae68ca2b1b",
              "display": "Dr. Sarah Johnson"
            }
          }
        ],
        "period": {
          "start": "2021-05-05"
        },
        "serviceProvider": {
          "reference": "Organization/5027d635-0831-4959-a1c2-b7af70e24268",
          "display": "Comprehensive Cancer Center"
        },
        "reasonReference": [
          {
            "reference": "Condition/c1c6691d-12c8-4f62-82e8-3df5606154c8",
            "display": "stroke"
          }
        ]
      },
      "request": {
        "method": "PUT",
        "url": "Encounter/dc05569d-5959-4315-8bf5-12d1eb0fb2ef"
      }
    },
    {
      "resource": {
        "resourceType": "DiagnosticReport",
        "status": "final",
        "category": [
          {
            "coding": [
              {
                "system": "http://terminology.hl7.org/CodeSystem/v2-0074",
                "code": "RAD",
                "display": "Radiology"
              }
            ]
          }
        ],
        "code": {
          "coding": [
            {
              "system": "http://loinc.org",
              "code": "18748-4",
              "display": "Diagnostic imaging study"
            }
          ]
        },
        "subject": {
          "reference": "Patient/cdd6a38c-d58a-4bfe-b05d-3392c751cf3f",
          "display": "Aisha Nguyen"
        },
        "effectiveDateTime": "2021-04-20",
        "performer": [
          {
            "reference": "Practitioner/f229edfe-fb10-455c-b17b-a0ae68ca2b1b",
            "display": "Dr. Sarah Johnson"
          }
        ],
        "conclusion": "Patient shows improving status for stroke. Aisha Nguyen, a 56-year-old Asian female, presented with a severe stroke on 2021-03-05. She received emergency care including tPA administration and aspirin therapy. Subsequently, she underwent stroke rehabilitation with physical and occupational therapy, along with medication adjustments. Follow-up assessments show improving neurological function and rehabilitation progress."
      },
      "request": {
        "method": "POST",
        "url": "DiagnosticReport"
      }
    },
    {
      "resource": {
        "resourceType": "Observation",
        "status": "final",
        "category": [
          {
            "coding": [
              {
                "system": "http://terminology.hl7.org/CodeSystem/observation-category",
                "code": "clinical",
                "display": "Clinical"
              }
            ]
          }
        ],
        "code": {
          "coding": [
            {
              "system": "http://loinc.org",
              "code": "11323-3",
              "display": "Health status"
            }
          ]
        },
        "subject": {
          "reference": "Patient/cdd6a38c-d58a-4bfe-b05d-3392c751cf3f",
          "display": "Aisha Nguyen"
        },
        "valueString": "improving",
        "effectiveDateTime": "2021-04-20"
      },
      "request": {
        "method": "POST",
        "url": "Observation"
      }
    }
  ]
}