{
  "resourceType": "Bundle",
  "id": "ed11dc9b-3672-4072-8eb8-3896cb64f677",
  "type": "transaction",
  "entry": [
    {
      "resource": {
        "resourceType": "Patient",
        "id": "5fcefb3a-0bed-42be-9cda-5d1c7469c556",
        "name": [
          {
            "use": "official",
            "family": "Nguyen",
            "given": [
              "Sakura"
            ]
          }
        ],
        "gender": "female",
        "birthDate": "1975-09-12",
        "address": [
          {
            "use": "home",
            "line": [
              "789 Willow Street"
            ],
            "city": "San Francisco",
            "state": "CA",
            "postalCode": "94107",
            "country": "USA"
          }
        ],
        "telecom": [
          {
            "system": "phone",
            "value": "(415) 555-1234",
            "use": "home"
          },
          {
            "system": "email",
            "value": "sakura.nguyen@example.com",
            "use": "home"
          }
        ],
        "extension": [
          {
            "url": "http://hl7.org/fhir/us/core/StructureDefinition/us-core-ethnicity",
            "valueString": "Asian"
          }
        ]
      },
      "request": {
        "method": "PUT",
        "url": "Patient/5fcefb3a-0bed-42be-9cda-5d1c7469c556"
      }
    },
    {
      "resource": {
        "resourceType": "Practitioner",
        "id": "30c803d4-eef9-4a33-81ce-16a6fa6d989b",
        "name": [
          {
            "use": "official",
            "family": "Johnson",
            "given": [
              "Dr. Sarah"
            ],
            "prefix": [
              "Dr."
            ]
          }
        ],
        "qualification": [
          {
            "code": {
              "coding": [
                {
                  "system": "http://terminology.hl7.org/CodeSystem/v2-0360",
                  "code": "MD",
                  "display": "Doctor of Medicine"
                }
              ]
            }
          }
        ]
      },
      "request": {
        "method": "PUT",
        "url": "Practitioner/30c803d4-eef9-4a33-81ce-16a6fa6d989b"
      }
    },
    {
      "resource": {
        "resourceType": "Organization",
        "id": "c91f013a-b15d-48ed-84e8-162f6dc8b0bf",
        "name": "Comprehensive Cancer Center",
        "type": [
          {
            "coding": [
              {
                "system": "http://terminology.hl7.org/CodeSystem/organization-type",
                "code": "prov",
                "display": "Healthcare Provider"
              }
            ]
          }
        ]
      },
      "request": {
        "method": "PUT",
        "url": "Organization/c91f013a-b15d-48ed-84e8-162f6dc8b0bf"
      }
    },
    {
      "resource": {
        "resourceType": "Condition",
        "id": "964a9fcf-eca2-4e8d-aedb-8b27a119299c",
        "clinicalStatus": {
          "coding": [
            {
              "system": "http://terminology.hl7.org/CodeSystem/condition-clinical",
              "code": "resolved",
              "display": "Resolved"
            }
          ]
        },
        "verificationStatus": {
          "coding": [
            {
              "system": "http://terminology.hl7.org/CodeSystem/condition-ver-status",
              "code": "confirmed",
              "display": "Confirmed"
            }
          ]
        },
        "code": {
          "coding": [
            {
              "system": "http://snomed.info/sct",
              "code": "19943007",
              "display": "liver cirrhosis"
            }
          ],
          "text": "liver cirrhosis"
        },
        "subject": {
          "reference": "Patient/5fcefb3a-0bed-42be-9cda-5d1c7469c556",
          "display": "Sakura Nguyen"
        },
        "onsetDateTime": "2022-01-15",
        "recordedDate": "2022-01-20"
      },
      "request": {
        "method": "PUT",
        "url": "Condition/964a9fcf-eca2-4e8d-aedb-8b27a119299c"
      }
    },
    {
      "resource": {
        "resourceType": "CarePlan",
        "id": "f6ec086b-bdbe-4727-9581-9c874a5f20e1",
        "status": "active",
        "intent": "plan",
        "title": "Treatment plan for liver cirrhosis",
        "description": "Comprehensive treatment plan including Liver Transplant Evaluation, Liver Transplant Surgery, Post-transplant Follow-up",
        "subject": {
          "reference": "Patient/5fcefb3a-0bed-42be-9cda-5d1c7469c556",
          "display": "Sakura Nguyen"
        },
        "period": {
          "start": "2022-02-01"
        },
        "addresses": [
          {
            "reference": "Condition/964a9fcf-eca2-4e8d-aedb-8b27a119299c",
            "display": "liver cirrhosis"
          }
        ],
        "author": [
          {
            "reference": "Practitioner/30c803d4-eef9-4a33-81ce-16a6fa6d989b",
            "display": "Dr. Sarah Johnson"
          }
        ]
      },
      "request": {
        "method": "PUT",
        "url": "CarePlan/f6ec086b-bdbe-4727-9581-9c874a5f20e1"
      }
    },
    {
      "resource": {
        "resourceType": "Encounter",
        "id": "8136ce71-0225-4371-b456-472fddeefe5c",
        "status": "finished",
        "class": {
          "system": "http://terminology.hl7.org/CodeSystem/v3-ActCode",
          "code": "AMB",
          "display": "Ambulatory"
        },
        "type": [
          {
            "coding": [
              {
                "system": "http://snomed.info/sct",
                "code": "308646001",
                "display": "Initial evaluation for liver transplant"
              }
            ],
            "text": "Initial evaluation for liver transplant"
          }
        ],
        "subject": {
          "reference": "Patient/5fcefb3a-0bed-42be-9cda-5d1c7469c556",
          "display": "Sakura Nguyen"
        },
        "participant": [
          {
            "individual": {
              "reference": "Practitioner/30c803d4-eef9-4a33-81ce-16a6fa6d989b",
              "display": "Dr. Sarah Johnson"
            }
          }
        ],
        "period": {
          "start": "2022-02-01"
        },
        "serviceProvider": {
          "reference": "Organization/c91f013a-b15d-48ed-84e8-162f6dc8b0bf",
          "display": "Comprehensive Cancer Center"
        },
        "reasonReference": [
          {
            "reference": "Condition/964a9fcf-eca2-4e8d-aedb-8b27a119299c",
            "display": "liver cirrhosis"
          }
        ]
      },
      "request": {
        "method": "PUT",
        "url": "Encounter/8136ce71-0225-4371-b456-472fddeefe5c"
      }
    },
    {
      "resource": {
        "resourceType": "Procedure",
        "id": "73f9bd38-ad4b-48f0-8579-431c4c845315",
        "status": "completed",
        "code": {
          "coding": [
            {
              "system": "http://snomed.info/sct",
              "code": "387713003",
              "display": "Liver function tests"
            }
          ],
          "text": "Liver function tests"
        },
        "subject": {
          "reference": "Patient/5fcefb3a-0bed-42be-9cda-5d1c7469c556",
          "display": "Sakura Nguyen"
        },
        "encounter": {
          "reference": "Encounter/8136ce71-0225-4371-b456-472fddeefe5c"
        },
        "performedDateTime": "2022-02-01",
        "performer": [
          {
            "actor": {
              "reference": "Practitioner/30c803d4-eef9-4a33-81ce-16a6fa6d989b",
              "display": "Dr. Sarah Johnson"
            }
          }
        ],
        "reasonReference": [
          {
            "reference": "Condition/964a9fcf-eca2-4e8d-aedb-8b27a119299c",
            "display": "liver cirrhosis"
          }
        ]
      },
      "request": {
        "method": "PUT",
        "url": "Procedure/73f9bd38-ad4b-48f0-8579-431c4c845315"
      }
    },
    {
      "resource": {
        "resourceType": "Procedure",
        "id": "1228ccc6-14aa-4376-9ef2-fe6d869441fc",
        "status": "completed",
        "code": {
          "coding": [
            {
              "system": "http://snomed.info/sct",
              "code": "387713003",
              "display": "Abdominal ultrasound"
            }
          ],
          "text": "Abdominal ultrasound"
        },
        "subject": {
          "reference": "Patient/5fcefb3a-0bed-42be-9cda-5d1c7469c556",
          "display": "Sakura Nguyen"
        },
        "encounter": {
          "reference": "Encounter/8136ce71-0225-4371-b456-472fddeefe5c"
        },
        "performedDateTime": "2022-02-01",
        "performer": [
          {
            "actor": {
              "reference": "Practitioner/30c803d4-eef9-4a33-81ce-16a6fa6d989b",
              "display": "Dr. Sarah Johnson"
            }
          }
        ],
        "reasonReference": [
          {
            "reference": "Condition/964a9fcf-eca2-4e8d-aedb-8b27a119299c",
            "display": "liver cirrhosis"
          }
        ]
      },
      "request": {
        "method": "PUT",
        "url": "Procedure/1228ccc6-14aa-4376-9ef2-fe6d869441fc"
      }
    },
    {
      "resource": {
        "resourceType": "MedicationAdministration",
        "id": "4d4c74e1-f243-4032-9f04-bd1189fe05b1",
        "status": "completed",
        "medicationCodeableConcept": {
          "coding": [
            {
              "system": "http://www.nlm.nih.gov/research/umls/rxnorm",
              "code": "123456",
              "display": "Lactulose"
            }
          ],
          "text": "Lactulose"
        },
        "subject": {
          "reference": "Patient/5fcefb3a-0bed-42be-9cda-5d1c7469c556",
          "display": "Sakura Nguyen"
        },
        "context": {
          "reference": "Encounter/8136ce71-0225-4371-b456-472fddeefe5c"
        },
        "effectiveDateTime": "2022-02-01",
        "performer": [
          {
            "actor": {
              "reference": "Practitioner/30c803d4-eef9-4a33-81ce-16a6fa6d989b",
              "display": "Dr. Sarah Johnson"
            }
          }
        ],
        "reasonReference": [
          {
            "reference": "Condition/964a9fcf-eca2-4e8d-aedb-8b27a119299c",
            "display": "liver cirrhosis"
          }
        ],
        "dosage": {
          "text": "As prescribed per protocol",
          "route": {
            "coding": [
              {
                "system": "http://snomed.info/sct",
                "code": "47625008",
                "display": "Intravenous route"
              }
            ]
          },
          "dose": {
            "value": 1,
            "unit": "dose",
            "system": "http://unitsofmeasure.org",
            "code": "1"
          }
        }
      },
      "request": {
        "method": "PUT",
        "url": "MedicationAdministration/4d4c74e1-f243-4032-9f04-bd1189fe05b1"
      }
    },
    {
      "resource": {
        "resourceType": "MedicationAdministration",
        "id": "0e57c054-f3cf-4a5d-b9eb-32b5d7dd7227",
        "status": "completed",
        "medicationCodeableConcept": {
          "coding": [
            {
              "system": "http://www.nlm.nih.gov/research/umls/rxnorm",
              "code": "123456",
              "display": "Spironolactone"
            }
          ],
          "text": "Spironolactone"
        },
        "subject": {
          "reference": "Patient/5fcefb3a-0bed-42be-9cda-5d1c7469c556",
          "display": "Sakura Nguyen"
        },
        "context": {
          "reference": "Encounter/8136ce71-0225-4371-b456-472fddeefe5c"
        },
        "effectiveDateTime": "2022-02-01",
        "performer": [
          {
            "actor": {
              "reference": "Practitioner/30c803d4-eef9-4a33-81ce-16a6fa6d989b",
              "display": "Dr. Sarah Johnson"
            }
          }
        ],
        "reasonReference": [
          {
            "reference": "Condition/964a9fcf-eca2-4e8d-aedb-8b27a119299c",
            "display": "liver cirrhosis"
          }
        ],
        "dosage": {
          "text": "As prescribed per protocol",
          "route": {
            "coding": [
              {
                "system": "http://snomed.info/sct",
                "code": "47625008",
                "display": "Intravenous route"
              }
            ]
          },
          "dose": {
            "value": 1,
            "unit": "dose",
            "system": "http://unitsofmeasure.org",
            "code": "1"
          }
        }
      },
      "request": {
        "method": "PUT",
        "url": "MedicationAdministration/0e57c054-f3cf-4a5d-b9eb-32b5d7dd7227"
      }
    },
    {
      "resource": {
        "resourceType": "Encounter",
        "id": "36322e0d-49cb-499a-9f52-4a06a9028282",
        "status": "finished",
        "class": {
          "system": "http://terminology.hl7.org/CodeSystem/v3-ActCode",
          "code": "AMB",
          "display": "Ambulatory"
        },
        "type": [
          {
            "coding": [
              {
                "system": "http://snomed.info/sct",
                "code": "308646001",
                "display": "CT scan for transplant assessment"
              }
            ],
            "text": "CT scan for transplant assessment"
          }
        ],
        "subject": {
          "reference": "Patient/5fcefb3a-0bed-42be-9cda-5d1c7469c556",
          "display": "Sakura Nguyen"
        },
        "participant": [
          {
            "individual": {
              "reference": "Practitioner/30c803d4-eef9-4a33-81ce-16a6fa6d989b",
              "display": "Dr. Sarah Johnson"
            }
          }
        ],
        "period": {
          "start": "2022-02-10"
        },
        "serviceProvider": {
          "reference": "Organization/c91f013a-b15d-48ed-84e8-162f6dc8b0bf",
          "display": "Comprehensive Cancer Center"
        },
        "reasonReference": [
          {
            "reference": "Condition/964a9fcf-eca2-4e8d-aedb-8b27a119299c",
            "display": "liver cirrhosis"
          }
        ]
      },
      "request": {
        "method": "PUT",
        "url": "Encounter/36322e0d-49cb-499a-9f52-4a06a9028282"
      }
    },
    {
      "resource": {
        "resourceType": "Procedure",
        "id": "31e96335-1cfb-4324-ba44-90c6c2eda527",
        "status": "completed",
        "code": {
          "coding": [
            {
              "system": "http://snomed.info/sct",
              "code": "387713003",
              "display": "CT scan"
            }
          ],
          "text": "CT scan"
        },
        "subject": {
          "reference": "Patient/5fcefb3a-0bed-42be-9cda-5d1c7469c556",
          "display": "Sakura Nguyen"
        },
        "encounter": {
          "reference": "Encounter/36322e0d-49cb-499a-9f52-4a06a9028282"
        },
        "performedDateTime": "2022-02-10",
        "performer": [
          {
            "actor": {
              "reference": "Practitioner/30c803d4-eef9-4a33-81ce-16a6fa6d989b",
              "display": "Dr. Sarah Johnson"
            }
          }
        ],
        "reasonReference": [
          {
            "reference": "Condition/964a9fcf-eca2-4e8d-aedb-8b27a119299c",
            "display": "liver cirrhosis"
          }
        ]
      },
      "request": {
        "method": "PUT",
        "url": "Procedure/31e96335-1cfb-4324-ba44-90c6c2eda527"
      }
    },
    {
      "resource": {
        "resourceType": "MedicationAdministration",
        "id": "5f0290cc-892f-4cb2-8db3-f9c31f958d2c",
        "status": "completed",
        "medicationCodeableConcept": {
          "coding": [
            {
              "system": "http://www.nlm.nih.gov/research/umls/rxnorm",
              "code": "123456",
              "display": "Omeprazole"
            }
          ],
          "text": "Omeprazole"
        },
        "subject": {
          "reference": "Patient/5fcefb3a-0bed-42be-9cda-5d1c7469c556",
          "display": "Sakura Nguyen"
        },
        "context": {
          "reference": "Encounter/36322e0d-49cb-499a-9f52-4a06a9028282"
        },
        "effectiveDateTime": "2022-02-10",
        "performer": [
          {
            "actor": {
              "reference": "Practitioner/30c803d4-eef9-4a33-81ce-16a6fa6d989b",
              "display": "Dr. Sarah Johnson"
            }
          }
        ],
        "reasonReference": [
          {
            "reference": "Condition/964a9fcf-eca2-4e8d-aedb-8b27a119299c",
            "display": "liver cirrhosis"
          }
        ],
        "dosage": {
          "text": "As prescribed per protocol",
          "route": {
            "coding": [
              {
                "system": "http://snomed.info/sct",
                "code": "47625008",
                "display": "Intravenous route"
              }
            ]
          },
          "dose": {
            "value": 1,
            "unit": "dose",
            "system": "http://unitsofmeasure.org",
            "code": "1"
          }
        }
      },
      "request": {
        "method": "PUT",
        "url": "MedicationAdministration/5f0290cc-892f-4cb2-8db3-f9c31f958d2c"
      }
    },
    {
      "resource": {
        "resourceType": "MedicationAdministration",
        "id": "c06f4291-566d-4716-a8ec-05eea003afac",
        "status": "completed",
        "medicationCodeableConcept": {
          "coding": [
            {
              "system": "http://www.nlm.nih.gov/research/umls/rxnorm",
              "code": "123456",
              "display": "Furosemide"
            }
          ],
          "text": "Furosemide"
        },
        "subject": {
          "reference": "Patient/5fcefb3a-0bed-42be-9cda-5d1c7469c556",
          "display": "Sakura Nguyen"
        },
        "context": {
          "reference": "Encounter/36322e0d-49cb-499a-9f52-4a06a9028282"
        },
        "effectiveDateTime": "2022-02-10",
        "performer": [
          {
            "actor": {
              "reference": "Practitioner/30c803d4-eef9-4a33-81ce-16a6fa6d989b",
              "display": "Dr. Sarah Johnson"
            }
          }
        ],
        "reasonReference": [
          {
            "reference": "Condition/964a9fcf-eca2-4e8d-aedb-8b27a119299c",
            "display": "liver cirrhosis"
          }
        ],
        "dosage": {
          "text": "As prescribed per protocol",
          "route": {
            "coding": [
              {
                "system": "http://snomed.info/sct",
                "code": "47625008",
                "display": "Intravenous route"
              }
            ]
          },
          "dose": {
            "value": 1,
            "unit": "dose",
            "system": "http://unitsofmeasure.org",
            "code": "1"
          }
        }
      },
      "request": {
        "method": "PUT",
        "url": "MedicationAdministration/c06f4291-566d-4716-a8ec-05eea003afac"
      }
    },
    {
      "resource": {
        "resourceType": "Encounter",
        "id": "91965402-f227-48c1-972e-889e9b3008a6",
        "status": "finished",
        "class": {
          "system": "http://terminology.hl7.org/CodeSystem/v3-ActCode",
          "code": "AMB",
          "display": "Ambulatory"
        },
        "type": [
          {
            "coding": [
              {
                "system": "http://snomed.info/sct",
                "code": "308646001",
                "display": "Liver biopsy for transplant evaluation"
              }
            ],
            "text": "Liver biopsy for transplant evaluation"
          }
        ],
        "subject": {
          "reference": "Patient/5fcefb3a-0bed-42be-9cda-5d1c7469c556",
          "display": "Sakura Nguyen"
        },
        "participant": [
          {
            "individual": {
              "reference": "Practitioner/30c803d4-eef9-4a33-81ce-16a6fa6d989b",
              "display": "Dr. Sarah Johnson"
            }
          }
        ],
        "period": {
          "start": "2022-02-20"
        },
        "serviceProvider": {
          "reference": "Organization/c91f013a-b15d-48ed-84e8-162f6dc8b0bf",
          "display": "Comprehensive Cancer Center"
        },
        "reasonReference": [
          {
            "reference": "Condition/964a9fcf-eca2-4e8d-aedb-8b27a119299c",
            "display": "liver cirrhosis"
          }
        ]
      },
      "request": {
        "method": "PUT",
        "url": "Encounter/91965402-f227-48c1-972e-889e9b3008a6"
      }
    },
    {
      "resource": {
        "resourceType": "Procedure",
        "id": "7bd211a6-4a32-4c00-a714-125c9957fee0",
        "status": "completed",
        "code": {
          "coding": [
            {
              "system": "http://snomed.info/sct",
              "code": "387713003",
              "display": "Liver biopsy"
            }
          ],
          "text": "Liver biopsy"
        },
        "subject": {
          "reference": "Patient/5fcefb3a-0bed-42be-9cda-5d1c7469c556",
          "display": "Sakura Nguyen"
        },
        "encounter": {
          "reference": "Encounter/91965402-f227-48c1-972e-889e9b3008a6"
        },
        "performedDateTime": "2022-02-20",
        "performer": [
          {
            "actor": {
              "reference": "Practitioner/30c803d4-eef9-4a33-81ce-16a6fa6d989b",
              "display": "Dr. Sarah Johnson"
            }
          }
        ],
        "reasonReference": [
          {
            "reference": "Condition/964a9fcf-eca2-4e8d-aedb-8b27a119299c",
            "display": "liver cirrhosis"
          }
        ]
      },
      "request": {
        "method": "PUT",
        "url": "Procedure/7bd211a6-4a32-4c00-a714-125c9957fee0"
      }
    },
    {
      "resource": {
        "resourceType": "MedicationAdministration",
        "id": "4dcbef09-1737-4f63-a80c-51d0936286fc",
        "status": "completed",
        "medicationCodeableConcept": {
          "coding": [
            {
              "system": "http://www.nlm.nih.gov/research/umls/rxnorm",
              "code": "123456",
              "display": "Propranolol"
            }
          ],
          "text": "Propranolol"
        },
        "subject": {
          "reference": "Patient/5fcefb3a-0bed-42be-9cda-5d1c7469c556",
          "display": "Sakura Nguyen"
        },
        "context": {
          "reference": "Encounter/91965402-f227-48c1-972e-889e9b3008a6"
        },
        "effectiveDateTime": "2022-02-20",
        "performer": [
          {
            "actor": {
              "reference": "Practitioner/30c803d4-eef9-4a33-81ce-16a6fa6d989b",
              "display": "Dr. Sarah Johnson"
            }
          }
        ],
        "reasonReference": [
          {
            "reference": "Condition/964a9fcf-eca2-4e8d-aedb-8b27a119299c",
            "display": "liver cirrhosis"
          }
        ],
        "dosage": {
          "text": "As prescribed per protocol",
          "route": {
            "coding": [
              {
                "system": "http://snomed.info/sct",
                "code": "47625008",
                "display": "Intravenous route"
              }
            ]
          },
          "dose": {
            "value": 1,
            "unit": "dose",
            "system": "http://unitsofmeasure.org",
            "code": "1"
          }
        }
      },
      "request": {
        "method": "PUT",
        "url": "MedicationAdministration/4dcbef09-1737-4f63-a80c-51d0936286fc"
      }
    },
    {
      "resource": {
        "resourceType": "MedicationAdministration",
        "id": "43fff8ea-714e-469a-90aa-b8735c29ba2d",
        "status": "completed",
        "medicationCodeableConcept": {
          "coding": [
            {
              "system": "http://www.nlm.nih.gov/research/umls/rxnorm",
              "code": "123456",
              "display": "Rifaximin"
            }
          ],
          "text": "Rifaximin"
        },
        "subject": {
          "reference": "Patient/5fcefb3a-0bed-42be-9cda-5d1c7469c556",
          "display": "Sakura Nguyen"
        },
        "context": {
          "reference": "Encounter/91965402-f227-48c1-972e-889e9b3008a6"
        },
        "effectiveDateTime": "2022-02-20",
        "performer": [
          {
            "actor": {
              "reference": "Practitioner/30c803d4-eef9-4a33-81ce-16a6fa6d989b",
              "display": "Dr. Sarah Johnson"
            }
          }
        ],
        "reasonReference": [
          {
            "reference": "Condition/964a9fcf-eca2-4e8d-aedb-8b27a119299c",
            "display": "liver cirrhosis"
          }
        ],
        "dosage": {
          "text": "As prescribed per protocol",
          "route": {
            "coding": [
              {
                "system": "http://snomed.info/sct",
                "code": "47625008",
                "display": "Intravenous route"
              }
            ]
          },
          "dose": {
            "value": 1,
            "unit": "dose",
            "system": "http://unitsofmeasure.org",
            "code": "1"
          }
        }
      },
      "request": {
        "method": "PUT",
        "url": "MedicationAdministration/43fff8ea-714e-469a-90aa-b8735c29ba2d"
      }
    },
    {
      "resource": {
        "resourceType": "Encounter",
        "id": "18ed823e-3bb8-4683-8be6-d1d85b059c1b",
        "status": "finished",
        "class": {
          "system": "http://terminology.hl7.org/CodeSystem/v3-ActCode",
          "code": "IMP",
          "display": "Inpatient"
        },
        "type": [
          {
            "coding": [
              {
                "system": "http://snomed.info/sct",
                "code": "308646001",
                "display": "Hospital admission for transplant workup"
              }
            ],
            "text": "Hospital admission for transplant workup"
          }
        ],
        "subject": {
          "reference": "Patient/5fcefb3a-0bed-42be-9cda-5d1c7469c556",
          "display": "Sakura Nguyen"
        },
        "participant": [
          {
            "individual": {
              "reference": "Practitioner/30c803d4-eef9-4a33-81ce-16a6fa6d989b",
              "display": "Dr. Sarah Johnson"
            }
          }
        ],
        "period": {
          "start": "2022-02-28"
        },
        "serviceProvider": {
          "reference": "Organization/c91f013a-b15d-48ed-84e8-162f6dc8b0bf",
          "display": "Comprehensive Cancer Center"
        },
        "reasonReference": [
          {
            "reference": "Condition/964a9fcf-eca2-4e8d-aedb-8b27a119299c",
            "display": "liver cirrhosis"
          }
        ]
      },
      "request": {
        "method": "PUT",
        "url": "Encounter/18ed823e-3bb8-4683-8be6-d1d85b059c1b"
      }
    },
    {
      "resource": {
        "resourceType": "Procedure",
        "id": "a2b6b9b0-53f2-4f12-906d-971742891896",
        "status": "completed",
        "code": {
          "coding": [
            {
              "system": "http://snomed.info/sct",
              "code": "387713003",
              "display": "Endoscopy"
            }
          ],
          "text": "Endoscopy"
        },
        "subject": {
          "reference": "Patient/5fcefb3a-0bed-42be-9cda-5d1c7469c556",
          "display": "Sakura Nguyen"
        },
        "encounter": {
          "reference": "Encounter/18ed823e-3bb8-4683-8be6-d1d85b059c1b"
        },
        "performedDateTime": "2022-02-28",
        "performer": [
          {
            "actor": {
              "reference": "Practitioner/30c803d4-eef9-4a33-81ce-16a6fa6d989b",
              "display": "Dr. Sarah Johnson"
            }
          }
        ],
        "reasonReference": [
          {
            "reference": "Condition/964a9fcf-eca2-4e8d-aedb-8b27a119299c",
            "display": "liver cirrhosis"
          }
        ]
      },
      "request": {
        "method": "PUT",
        "url": "Procedure/a2b6b9b0-53f2-4f12-906d-971742891896"
      }
    },
    {
      "resource": {
        "resourceType": "Procedure",
        "id": "81066f8f-d5ba-4e89-a6d6-7ed039574c1a",
        "status": "completed",
        "code": {
          "coding": [
            {
              "system": "http://snomed.info/sct",
              "code": "387713003",
              "display": "MRI"
            }
          ],
          "text": "MRI"
        },
        "subject": {
          "reference": "Patient/5fcefb3a-0bed-42be-9cda-5d1c7469c556",
          "display": "Sakura Nguyen"
        },
        "encounter": {
          "reference": "Encounter/18ed823e-3bb8-4683-8be6-d1d85b059c1b"
        },
        "performedDateTime": "2022-02-28",
        "performer": [
          {
            "actor": {
              "reference": "Practitioner/30c803d4-eef9-4a33-81ce-16a6fa6d989b",
              "display": "Dr. Sarah Johnson"
            }
          }
        ],
        "reasonReference": [
          {
            "reference": "Condition/964a9fcf-eca2-4e8d-aedb-8b27a119299c",
            "display": "liver cirrhosis"
          }
        ]
      },
      "request": {
        "method": "PUT",
        "url": "Procedure/81066f8f-d5ba-4e89-a6d6-7ed039574c1a"
      }
    },
    {
      "resource": {
        "resourceType": "MedicationAdministration",
        "id": "4701f0fc-bfd1-4d58-84b8-2ac8e27ec342",
        "status": "completed",
        "medicationCodeableConcept": {
          "coding": [
            {
              "system": "http://www.nlm.nih.gov/research/umls/rxnorm",
              "code": "123456",
              "display": "Vitamin K"
            }
          ],
          "text": "Vitamin K"
        },
        "subject": {
          "reference": "Patient/5fcefb3a-0bed-42be-9cda-5d1c7469c556",
          "display": "Sakura Nguyen"
        },
        "context": {
          "reference": "Encounter/18ed823e-3bb8-4683-8be6-d1d85b059c1b"
        },
        "effectiveDateTime": "2022-02-28",
        "performer": [
          {
            "actor": {
              "reference": "Practitioner/30c803d4-eef9-4a33-81ce-16a6fa6d989b",
              "display": "Dr. Sarah Johnson"
            }
          }
        ],
        "reasonReference": [
          {
            "reference": "Condition/964a9fcf-eca2-4e8d-aedb-8b27a119299c",
            "display": "liver cirrhosis"
          }
        ],
        "dosage": {
          "text": "As prescribed per protocol",
          "route": {
            "coding": [
              {
                "system": "http://snomed.info/sct",
                "code": "47625008",
                "display": "Intravenous route"
              }
            ]
          },
          "dose": {
            "value": 1,
            "unit": "dose",
            "system": "http://unitsofmeasure.org",
            "code": "1"
          }
        }
      },
      "request": {
        "method": "PUT",
        "url": "MedicationAdministration/4701f0fc-bfd1-4d58-84b8-2ac8e27ec342"
      }
    },
    {
      "resource": {
        "resourceType": "MedicationAdministration",
        "id": "d40ccab7-bd35-479a-b819-2499e59ab8ae",
        "status": "completed",
        "medicationCodeableConcept": {
          "coding": [
            {
              "system": "http://www.nlm.nih.gov/research/umls/rxnorm",
              "code": "123456",
              "display": "Albumin"
            }
          ],
          "text": "Albumin"
        },
        "subject": {
          "reference": "Patient/5fcefb3a-0bed-42be-9cda-5d1c7469c556",
          "display": "Sakura Nguyen"
        },
        "context": {
          "reference": "Encounter/18ed823e-3bb8-4683-8be6-d1d85b059c1b"
        },
        "effectiveDateTime": "2022-02-28",
        "performer": [
          {
            "actor": {
              "reference": "Practitioner/30c803d4-eef9-4a33-81ce-16a6fa6d989b",
              "display": "Dr. Sarah Johnson"
            }
          }
        ],
        "reasonReference": [
          {
            "reference": "Condition/964a9fcf-eca2-4e8d-aedb-8b27a119299c",
            "display": "liver cirrhosis"
          }
        ],
        "dosage": {
          "text": "As prescribed per protocol",
          "route": {
            "coding": [
              {
                "system": "http://snomed.info/sct",
                "code": "47625008",
                "display": "Intravenous route"
              }
            ]
          },
          "dose": {
            "value": 1,
            "unit": "dose",
            "system": "http://unitsofmeasure.org",
            "code": "1"
          }
        }
      },
      "request": {
        "method": "PUT",
        "url": "MedicationAdministration/d40ccab7-bd35-479a-b819-2499e59ab8ae"
      }
    },
    {
      "resource": {
        "resourceType": "Encounter",
        "id": "2cf81149-51e5-4fe2-afc0-41850b1fefc4",
        "status": "finished",
        "class": {
          "system": "http://terminology.hl7.org/CodeSystem/v3-ActCode",
          "code": "IMP",
          "display": "Inpatient"
        },
        "type": [
          {
            "coding": [
              {
                "system": "http://snomed.info/sct",
                "code": "308646001",
                "display": "Liver transplant surgery"
              }
            ],
            "text": "Liver transplant surgery"
          }
        ],
        "subject": {
          "reference": "Patient/5fcefb3a-0bed-42be-9cda-5d1c7469c556",
          "display": "Sakura Nguyen"
        },
        "participant": [
          {
            "individual": {
              "reference": "Practitioner/30c803d4-eef9-4a33-81ce-16a6fa6d989b",
              "display": "Dr. Sarah Johnson"
            }
          }
        ],
        "period": {
          "start": "2022-03-15"
        },
        "serviceProvider": {
          "reference": "Organization/c91f013a-b15d-48ed-84e8-162f6dc8b0bf",
          "display": "Comprehensive Cancer Center"
        },
        "reasonReference": [
          {
            "reference": "Condition/964a9fcf-eca2-4e8d-aedb-8b27a119299c",
            "display": "liver cirrhosis"
          }
        ]
      },
      "request": {
        "method": "PUT",
        "url": "Encounter/2cf81149-51e5-4fe2-afc0-41850b1fefc4"
      }
    },
    {
      "resource": {
        "resourceType": "Procedure",
        "id": "8419cbc5-2b52-4de9-8a95-b711b2e7c8b9",
        "status": "completed",
        "code": {
          "coding": [
            {
              "system": "http://snomed.info/sct",
              "code": "387713003",
              "display": "Liver transplant surgery"
            }
          ],
          "text": "Liver transplant surgery"
        },
        "subject": {
          "reference": "Patient/5fcefb3a-0bed-42be-9cda-5d1c7469c556",
          "display": "Sakura Nguyen"
        },
        "encounter": {
          "reference": "Encounter/2cf81149-51e5-4fe2-afc0-41850b1fefc4"
        },
        "performedDateTime": "2022-03-15",
        "performer": [
          {
            "actor": {
              "reference": "Practitioner/30c803d4-eef9-4a33-81ce-16a6fa6d989b",
              "display": "Dr. Sarah Johnson"
            }
          }
        ],
        "reasonReference": [
          {
            "reference": "Condition/964a9fcf-eca2-4e8d-aedb-8b27a119299c",
            "display": "liver cirrhosis"
          }
        ]
      },
      "request": {
        "method": "PUT",
        "url": "Procedure/8419cbc5-2b52-4de9-8a95-b711b2e7c8b9"
      }
    },
    {
      "resource": {
        "resourceType": "Procedure",
        "id": "3bfa652b-9c1c-44f0-9040-6e6125a11de1",
        "status": "completed",
        "code": {
          "coding": [
            {
              "system": "http://snomed.info/sct",
              "code": "387713003",
              "display": "Anesthesia"
            }
          ],
          "text": "Anesthesia"
        },
        "subject": {
          "reference": "Patient/5fcefb3a-0bed-42be-9cda-5d1c7469c556",
          "display": "Sakura Nguyen"
        },
        "encounter": {
          "reference": "Encounter/2cf81149-51e5-4fe2-afc0-41850b1fefc4"
        },
        "performedDateTime": "2022-03-15",
        "performer": [
          {
            "actor": {
              "reference": "Practitioner/30c803d4-eef9-4a33-81ce-16a6fa6d989b",
              "display": "Dr. Sarah Johnson"
            }
          }
        ],
        "reasonReference": [
          {
            "reference": "Condition/964a9fcf-eca2-4e8d-aedb-8b27a119299c",
            "display": "liver cirrhosis"
          }
        ]
      },
      "request": {
        "method": "PUT",
        "url": "Procedure/3bfa652b-9c1c-44f0-9040-6e6125a11de1"
      }
    },
    {
      "resource": {
        "resourceType": "MedicationAdministration",
        "id": "e7cebadb-7422-46a1-866f-4b5ba08edd94",
        "status": "completed",
        "medicationCodeableConcept": {
          "coding": [
            {
              "system": "http://www.nlm.nih.gov/research/umls/rxnorm",
              "code": "123456",
              "display": "Immunosuppressants"
            }
          ],
          "text": "Immunosuppressants"
        },
        "subject": {
          "reference": "Patient/5fcefb3a-0bed-42be-9cda-5d1c7469c556",
          "display": "Sakura Nguyen"
        },
        "context": {
          "reference": "Encounter/2cf81149-51e5-4fe2-afc0-41850b1fefc4"
        },
        "effectiveDateTime": "2022-03-15",
        "performer": [
          {
            "actor": {
              "reference": "Practitioner/30c803d4-eef9-4a33-81ce-16a6fa6d989b",
              "display": "Dr. Sarah Johnson"
            }
          }
        ],
        "reasonReference": [
          {
            "reference": "Condition/964a9fcf-eca2-4e8d-aedb-8b27a119299c",
            "display": "liver cirrhosis"
          }
        ],
        "dosage": {
          "text": "As prescribed per protocol",
          "route": {
            "coding": [
              {
                "system": "http://snomed.info/sct",
                "code": "47625008",
                "display": "Intravenous route"
              }
            ]
          },
          "dose": {
            "value": 1,
            "unit": "dose",
            "system": "http://unitsofmeasure.org",
            "code": "1"
          }
        }
      },
      "request": {
        "method": "PUT",
        "url": "MedicationAdministration/e7cebadb-7422-46a1-866f-4b5ba08edd94"
      }
    },
    {
      "resource": {
        "resourceType": "MedicationAdministration",
        "id": "dce4d5e5-0060-47bd-81d1-c9804298cc85",
        "status": "completed",
        "medicationCodeableConcept": {
          "coding": [
            {
              "system": "http://www.nlm.nih.gov/research/umls/rxnorm",
              "code": "123456",
              "display": "Antibiotics"
            }
          ],
          "text": "Antibiotics"
        },
        "subject": {
          "reference": "Patient/5fcefb3a-0bed-42be-9cda-5d1c7469c556",
          "display": "Sakura Nguyen"
        },
        "context": {
          "reference": "Encounter/2cf81149-51e5-4fe2-afc0-41850b1fefc4"
        },
        "effectiveDateTime": "2022-03-15",
        "performer": [
          {
            "actor": {
              "reference": "Practitioner/30c803d4-eef9-4a33-81ce-16a6fa6d989b",
              "display": "Dr. Sarah Johnson"
            }
          }
        ],
        "reasonReference": [
          {
            "reference": "Condition/964a9fcf-eca2-4e8d-aedb-8b27a119299c",
            "display": "liver cirrhosis"
          }
        ],
        "dosage": {
          "text": "As prescribed per protocol",
          "route": {
            "coding": [
              {
                "system": "http://snomed.info/sct",
                "code": "47625008",
                "display": "Intravenous route"
              }
            ]
          },
          "dose": {
            "value": 1,
            "unit": "dose",
            "system": "http://unitsofmeasure.org",
            "code": "1"
          }
        }
      },
      "request": {
        "method": "PUT",
        "url": "MedicationAdministration/dce4d5e5-0060-47bd-81d1-c9804298cc85"
      }
    },
    {
      "resource": {
        "resourceType": "Encounter",
        "id": "fe606ba7-3138-4f97-9070-80f605b7ec50",
        "status": "finished",
        "class": {
          "system": "http://terminology.hl7.org/CodeSystem/v3-ActCode",
          "code": "IMP",
          "display": "Inpatient"
        },
        "type": [
          {
            "coding": [
              {
                "system": "http://snomed.info/sct",
                "code": "308646001",
                "display": "Post-transplant monitoring"
              }
            ],
            "text": "Post-transplant monitoring"
          }
        ],
        "subject": {
          "reference": "Patient/5fcefb3a-0bed-42be-9cda-5d1c7469c556",
          "display": "Sakura Nguyen"
        },
        "participant": [
          {
            "individual": {
              "reference": "Practitioner/30c803d4-eef9-4a33-81ce-16a6fa6d989b",
              "display": "Dr. Sarah Johnson"
            }
          }
        ],
        "period": {
          "start": "2022-03-20"
        },
        "serviceProvider": {
          "reference": "Organization/c91f013a-b15d-48ed-84e8-162f6dc8b0bf",
          "display": "Comprehensive Cancer Center"
        },
        "reasonReference": [
          {
            "reference": "Condition/964a9fcf-eca2-4e8d-aedb-8b27a119299c",
            "display": "liver cirrhosis"
          }
        ]
      },
      "request": {
        "method": "PUT",
        "url": "Encounter/fe606ba7-3138-4f97-9070-80f605b7ec50"
      }
    },
    {
      "resource": {
        "resourceType": "Procedure",
        "id": "59d6f48c-11d7-4e28-a5e0-c97c3d0424aa",
        "status": "completed",
        "code": {
          "coding": [
            {
              "system": "http://snomed.info/sct",
              "code": "387713003",
              "display": "Vital signs monitoring"
            }
          ],
          "text": "Vital signs monitoring"
        },
        "subject": {
          "reference": "Patient/5fcefb3a-0bed-42be-9cda-5d1c7469c556",
          "display": "Sakura Nguyen"
        },
        "encounter": {
          "reference": "Encounter/fe606ba7-3138-4f97-9070-80f605b7ec50"
        },
        "performedDateTime": "2022-03-20",
        "performer": [
          {
            "actor": {
              "reference": "Practitioner/30c803d4-eef9-4a33-81ce-16a6fa6d989b",
              "display": "Dr. Sarah Johnson"
            }
          }
        ],
        "reasonReference": [
          {
            "reference": "Condition/964a9fcf-eca2-4e8d-aedb-8b27a119299c",
            "display": "liver cirrhosis"
          }
        ]
      },
      "request": {
        "method": "PUT",
        "url": "Procedure/59d6f48c-11d7-4e28-a5e0-c97c3d0424aa"
      }
    },
    {
      "resource": {
        "resourceType": "Procedure",
        "id": "2380efc5-f802-45de-a238-0c707c39532b",
        "status": "completed",
        "code": {
          "coding": [
            {
              "system": "http://snomed.info/sct",
              "code": "387713003",
              "display": "Blood tests"
            }
          ],
          "text": "Blood tests"
        },
        "subject": {
          "reference": "Patient/5fcefb3a-0bed-42be-9cda-5d1c7469c556",
          "display": "Sakura Nguyen"
        },
        "encounter": {
          "reference": "Encounter/fe606ba7-3138-4f97-9070-80f605b7ec50"
        },
        "performedDateTime": "2022-03-20",
        "performer": [
          {
            "actor": {
              "reference": "Practitioner/30c803d4-eef9-4a33-81ce-16a6fa6d989b",
              "display": "Dr. Sarah Johnson"
            }
          }
        ],
        "reasonReference": [
          {
            "reference": "Condition/964a9fcf-eca2-4e8d-aedb-8b27a119299c",
            "display": "liver cirrhosis"
          }
        ]
      },
      "request": {
        "method": "PUT",
        "url": "Procedure/2380efc5-f802-45de-a238-0c707c39532b"
      }
    },
    {
      "resource": {
        "resourceType": "MedicationAdministration",
        "id": "f8fb2f4c-fc78-4032-a0f2-5e9f0c5facad",
        "status": "completed",
        "medicationCodeableConcept": {
          "coding": [
            {
              "system": "http://www.nlm.nih.gov/research/umls/rxnorm",
              "code": "123456",
              "display": "Tacrolimus"
            }
          ],
          "text": "Tacrolimus"
        },
        "subject": {
          "reference": "Patient/5fcefb3a-0bed-42be-9cda-5d1c7469c556",
          "display": "Sakura Nguyen"
        },
        "context": {
          "reference": "Encounter/fe606ba7-3138-4f97-9070-80f605b7ec50"
        },
        "effectiveDateTime": "2022-03-20",
        "performer": [
          {
            "actor": {
              "reference": "Practitioner/30c803d4-eef9-4a33-81ce-16a6fa6d989b",
              "display": "Dr. Sarah Johnson"
            }
          }
        ],
        "reasonReference": [
          {
            "reference": "Condition/964a9fcf-eca2-4e8d-aedb-8b27a119299c",
            "display": "liver cirrhosis"
          }
        ],
        "dosage": {
          "text": "As prescribed per protocol",
          "route": {
            "coding": [
              {
                "system": "http://snomed.info/sct",
                "code": "47625008",
                "display": "Intravenous route"
              }
            ]
          },
          "dose": {
            "value": 1,
            "unit": "dose",
            "system": "http://unitsofmeasure.org",
            "code": "1"
          }
        }
      },
      "request": {
        "method": "PUT",
        "url": "MedicationAdministration/f8fb2f4c-fc78-4032-a0f2-5e9f0c5facad"
      }
    },
    {
      "resource": {
        "resourceType": "MedicationAdministration",
        "id": "2cc80b0f-9f7a-4d9c-9a59-8360d7d11b19",
        "status": "completed",
        "medicationCodeableConcept": {
          "coding": [
            {
              "system": "http://www.nlm.nih.gov/research/umls/rxnorm",
              "code": "123456",
              "display": "Mycophenolate"
            }
          ],
          "text": "Mycophenolate"
        },
        "subject": {
          "reference": "Patient/5fcefb3a-0bed-42be-9cda-5d1c7469c556",
          "display": "Sakura Nguyen"
        },
        "context": {
          "reference": "Encounter/fe606ba7-3138-4f97-9070-80f605b7ec50"
        },
        "effectiveDateTime": "2022-03-20",
        "performer": [
          {
            "actor": {
              "reference": "Practitioner/30c803d4-eef9-4a33-81ce-16a6fa6d989b",
              "display": "Dr. Sarah Johnson"
            }
          }
        ],
        "reasonReference": [
          {
            "reference": "Condition/964a9fcf-eca2-4e8d-aedb-8b27a119299c",
            "display": "liver cirrhosis"
          }
        ],
        "dosage": {
          "text": "As prescribed per protocol",
          "route": {
            "coding": [
              {
                "system": "http://snomed.info/sct",
                "code": "47625008",
                "display": "Intravenous route"
              }
            ]
          },
          "dose": {
            "value": 1,
            "unit": "dose",
            "system": "http://unitsofmeasure.org",
            "code": "1"
          }
        }
      },
      "request": {
        "method": "PUT",
        "url": "MedicationAdministration/2cc80b0f-9f7a-4d9c-9a59-8360d7d11b19"
      }
    },
    {
      "resource": {
        "resourceType": "Encounter",
        "id": "c7e148d3-c3bb-497c-93eb-f22037ef130f",
        "status": "finished",
        "class": {
          "system": "http://terminology.hl7.org/CodeSystem/v3-ActCode",
          "code": "AMB",
          "display": "Ambulatory"
        },
        "type": [
          {
            "coding": [
              {
                "system": "http://snomed.info/sct",
                "code": "308646001",
                "display": "Post-transplant follow-up visit"
              }
            ],
            "text": "Post-transplant follow-up visit"
          }
        ],
        "subject": {
          "reference": "Patient/5fcefb3a-0bed-42be-9cda-5d1c7469c556",
          "display": "Sakura Nguyen"
        },
        "participant": [
          {
            "individual": {
              "reference": "Practitioner/30c803d4-eef9-4a33-81ce-16a6fa6d989b",
              "display": "Dr. Sarah Johnson"
            }
          }
        ],
        "period": {
          "start": "2022-04-15"
        },
        "serviceProvider": {
          "reference": "Organization/c91f013a-b15d-48ed-84e8-162f6dc8b0bf",
          "display": "Comprehensive Cancer Center"
        },
        "reasonReference": [
          {
            "reference": "Condition/964a9fcf-eca2-4e8d-aedb-8b27a119299c",
            "display": "liver cirrhosis"
          }
        ]
      },
      "request": {
        "method": "PUT",
        "url": "Encounter/c7e148d3-c3bb-497c-93eb-f22037ef130f"
      }
    },
    {
      "resource": {
        "resourceType": "Encounter",
        "id": "6e9fdd6d-be0d-4374-8b8f-eff74f9451d1",
        "status": "finished",
        "class": {
          "system": "http://terminology.hl7.org/CodeSystem/v3-ActCode",
          "code": "AMB",
          "display": "Ambulatory"
        },
        "type": [
          {
            "coding": [
              {
                "system": "http://snomed.info/sct",
                "code": "308646001",
                "display": "Transplant recovery assessment"
              }
            ],
            "text": "Transplant recovery assessment"
          }
        ],
        "subject": {
          "reference": "Patient/5fcefb3a-0bed-42be-9cda-5d1c7469c556",
          "display": "Sakura Nguyen"
        },
        "participant": [
          {
            "individual": {
              "reference": "Practitioner/30c803d4-eef9-4a33-81ce-16a6fa6d989b",
              "display": "Dr. Sarah Johnson"
            }
          }
        ],
        "period": {
          "start": "2022-04-30"
        },
        "serviceProvider": {
          "reference": "Organization/c91f013a-b15d-48ed-84e8-162f6dc8b0bf",
          "display": "Comprehensive Cancer Center"
        },
        "reasonReference": [
          {
            "reference": "Condition/964a9fcf-eca2-4e8d-aedb-8b27a119299c",
            "display": "liver cirrhosis"
          }
        ]
      },
      "request": {
        "method": "PUT",
        "url": "Encounter/6e9fdd6d-be0d-4374-8b8f-eff74f9451d1"
      }
    },
    {
      "resource": {
        "resourceType": "DiagnosticReport",
        "status": "final",
        "category": [
          {
            "coding": [
              {
                "system": "http://terminology.hl7.org/CodeSystem/v2-0074",
                "code": "RAD",
                "display": "Radiology"
              }
            ]
          }
        ],
        "code": {
          "coding": [
            {
              "system": "http://loinc.org",
              "code": "18748-4",
              "display": "Diagnostic imaging study"
            }
          ]
        },
        "subject": {
          "reference": "Patient/5fcefb3a-0bed-42be-9cda-5d1c7469c556",
          "display": "Sakura Nguyen"
        },
        "effectiveDateTime": "2022-04-15",
        "performer": [
          {
            "reference": "Practitioner/30c803d4-eef9-4a33-81ce-16a6fa6d989b",
            "display": "Dr. Sarah Johnson"
          }
        ],
        "conclusion": "Patient shows improving status for liver cirrhosis. Sakura Nguyen, a 46-year-old Asian female with severe liver cirrhosis underwent successful liver transplant surgery on March 15, 2022. Post-transplant recovery is progressing well with close monitoring and immunosuppressant therapy."
      },
      "request": {
        "method": "POST",
        "url": "DiagnosticReport"
      }
    },
    {
      "resource": {
        "resourceType": "Observation",
        "status": "final",
        "category": [
          {
            "coding": [
              {
                "system": "http://terminology.hl7.org/CodeSystem/observation-category",
                "code": "clinical",
                "display": "Clinical"
              }
            ]
          }
        ],
        "code": {
          "coding": [
            {
              "system": "http://loinc.org",
              "code": "11323-3",
              "display": "Health status"
            }
          ]
        },
        "subject": {
          "reference": "Patient/5fcefb3a-0bed-42be-9cda-5d1c7469c556",
          "display": "Sakura Nguyen"
        },
        "valueString": "improving",
        "effectiveDateTime": "2022-04-15"
      },
      "request": {
        "method": "POST",
        "url": "Observation"
      }
    }
  ]
}