{
  "resourceType": "Bundle",
  "id": "a884324c-bbe3-4021-ac8a-7df18a0dd1d6",
  "type": "transaction",
  "entry": [
    {
      "resource": {
        "resourceType": "Patient",
        "id": "7e8d45ee-ccc2-4748-b14d-18833d7873d4",
        "name": [
          {
            "use": "official",
            "family": "Chen",
            "given": [
              "Aisha"
            ]
          }
        ],
        "gender": "female",
        "birthDate": "1965-07-12",
        "address": [
          {
            "use": "home",
            "line": [
              "789 Elm Street"
            ],
            "city": "Seattle",
            "state": "WA",
            "postalCode": "98101",
            "country": "USA"
          }
        ],
        "telecom": [
          {
            "system": "phone",
            "value": "(206) 555-1234",
            "use": "home"
          },
          {
            "system": "email",
            "value": "aisha.chen@example.com",
            "use": "home"
          }
        ],
        "extension": [
          {
            "url": "http://hl7.org/fhir/us/core/StructureDefinition/us-core-ethnicity",
            "valueString": "Asian"
          }
        ]
      },
      "request": {
        "method": "PUT",
        "url": "Patient/7e8d45ee-ccc2-4748-b14d-18833d7873d4"
      }
    },
    {
      "resource": {
        "resourceType": "Practitioner",
        "id": "a974dd1a-c762-41a2-967e-b05bf7a97492",
        "name": [
          {
            "use": "official",
            "family": "Johnson",
            "given": [
              "Dr. Sarah"
            ],
            "prefix": [
              "Dr."
            ]
          }
        ],
        "qualification": [
          {
            "code": {
              "coding": [
                {
                  "system": "http://terminology.hl7.org/CodeSystem/v2-0360",
                  "code": "MD",
                  "display": "Doctor of Medicine"
                }
              ]
            }
          }
        ]
      },
      "request": {
        "method": "PUT",
        "url": "Practitioner/a974dd1a-c762-41a2-967e-b05bf7a97492"
      }
    },
    {
      "resource": {
        "resourceType": "Organization",
        "id": "c4f22d28-779b-4756-8982-1c3f9805b022",
        "name": "Comprehensive Cancer Center",
        "type": [
          {
            "coding": [
              {
                "system": "http://terminology.hl7.org/CodeSystem/organization-type",
                "code": "prov",
                "display": "Healthcare Provider"
              }
            ]
          }
        ]
      },
      "request": {
        "method": "PUT",
        "url": "Organization/c4f22d28-779b-4756-8982-1c3f9805b022"
      }
    },
    {
      "resource": {
        "resourceType": "Condition",
        "id": "690bf278-42fb-4ce0-8003-c5ac5c325811",
        "clinicalStatus": {
          "coding": [
            {
              "system": "http://terminology.hl7.org/CodeSystem/condition-clinical",
              "code": "resolved",
              "display": "Resolved"
            }
          ]
        },
        "verificationStatus": {
          "coding": [
            {
              "system": "http://terminology.hl7.org/CodeSystem/condition-ver-status",
              "code": "confirmed",
              "display": "Confirmed"
            }
          ]
        },
        "code": {
          "coding": [
            {
              "system": "http://snomed.info/sct",
              "code": "49436004",
              "display": "atrial fibrillation"
            }
          ],
          "text": "atrial fibrillation"
        },
        "subject": {
          "reference": "Patient/7e8d45ee-ccc2-4748-b14d-18833d7873d4",
          "display": "Aisha Chen"
        },
        "onsetDateTime": "2021-02-14",
        "recordedDate": "2021-02-20"
      },
      "request": {
        "method": "PUT",
        "url": "Condition/690bf278-42fb-4ce0-8003-c5ac5c325811"
      }
    },
    {
      "resource": {
        "resourceType": "CarePlan",
        "id": "d2453c89-d4f8-4d94-b59e-d3cc48b31ffe",
        "status": "active",
        "intent": "plan",
        "title": "Treatment plan for atrial fibrillation",
        "description": "Comprehensive treatment plan including Cardioversion, Ablation Therapy",
        "subject": {
          "reference": "Patient/7e8d45ee-ccc2-4748-b14d-18833d7873d4",
          "display": "Aisha Chen"
        },
        "period": {
          "start": "2021-03-05"
        },
        "addresses": [
          {
            "reference": "Condition/690bf278-42fb-4ce0-8003-c5ac5c325811",
            "display": "atrial fibrillation"
          }
        ],
        "author": [
          {
            "reference": "Practitioner/a974dd1a-c762-41a2-967e-b05bf7a97492",
            "display": "Dr. Sarah Johnson"
          }
        ]
      },
      "request": {
        "method": "PUT",
        "url": "CarePlan/d2453c89-d4f8-4d94-b59e-d3cc48b31ffe"
      }
    },
    {
      "resource": {
        "resourceType": "Encounter",
        "id": "a4cb4813-65dc-42a4-b9cd-a437ae1ecc37",
        "status": "finished",
        "class": {
          "system": "http://terminology.hl7.org/CodeSystem/v3-ActCode",
          "code": "IMP",
          "display": "Inpatient"
        },
        "type": [
          {
            "coding": [
              {
                "system": "http://snomed.info/sct",
                "code": "308646001",
                "display": "Cardioversion procedure"
              }
            ],
            "text": "Cardioversion procedure"
          }
        ],
        "subject": {
          "reference": "Patient/7e8d45ee-ccc2-4748-b14d-18833d7873d4",
          "display": "Aisha Chen"
        },
        "participant": [
          {
            "individual": {
              "reference": "Practitioner/a974dd1a-c762-41a2-967e-b05bf7a97492",
              "display": "Dr. Sarah Johnson"
            }
          }
        ],
        "period": {
          "start": "2021-03-05"
        },
        "serviceProvider": {
          "reference": "Organization/c4f22d28-779b-4756-8982-1c3f9805b022",
          "display": "Comprehensive Cancer Center"
        },
        "reasonReference": [
          {
            "reference": "Condition/690bf278-42fb-4ce0-8003-c5ac5c325811",
            "display": "atrial fibrillation"
          }
        ]
      },
      "request": {
        "method": "PUT",
        "url": "Encounter/a4cb4813-65dc-42a4-b9cd-a437ae1ecc37"
      }
    },
    {
      "resource": {
        "resourceType": "Procedure",
        "id": "47160375-1349-45c7-b686-db8b06c463b6",
        "status": "completed",
        "code": {
          "coding": [
            {
              "system": "http://snomed.info/sct",
              "code": "387713003",
              "display": "Cardioversion"
            }
          ],
          "text": "Cardioversion"
        },
        "subject": {
          "reference": "Patient/7e8d45ee-ccc2-4748-b14d-18833d7873d4",
          "display": "Aisha Chen"
        },
        "encounter": {
          "reference": "Encounter/a4cb4813-65dc-42a4-b9cd-a437ae1ecc37"
        },
        "performedDateTime": "2021-03-05",
        "performer": [
          {
            "actor": {
              "reference": "Practitioner/a974dd1a-c762-41a2-967e-b05bf7a97492",
              "display": "Dr. Sarah Johnson"
            }
          }
        ],
        "reasonReference": [
          {
            "reference": "Condition/690bf278-42fb-4ce0-8003-c5ac5c325811",
            "display": "atrial fibrillation"
          }
        ]
      },
      "request": {
        "method": "PUT",
        "url": "Procedure/47160375-1349-45c7-b686-db8b06c463b6"
      }
    },
    {
      "resource": {
        "resourceType": "MedicationAdministration",
        "id": "7dafbf46-d179-43f6-9e34-558c119ae6f5",
        "status": "completed",
        "medicationCodeableConcept": {
          "coding": [
            {
              "system": "http://www.nlm.nih.gov/research/umls/rxnorm",
              "code": "123456",
              "display": "Amiodarone"
            }
          ],
          "text": "Amiodarone"
        },
        "subject": {
          "reference": "Patient/7e8d45ee-ccc2-4748-b14d-18833d7873d4",
          "display": "Aisha Chen"
        },
        "context": {
          "reference": "Encounter/a4cb4813-65dc-42a4-b9cd-a437ae1ecc37"
        },
        "effectiveDateTime": "2021-03-05",
        "performer": [
          {
            "actor": {
              "reference": "Practitioner/a974dd1a-c762-41a2-967e-b05bf7a97492",
              "display": "Dr. Sarah Johnson"
            }
          }
        ],
        "reasonReference": [
          {
            "reference": "Condition/690bf278-42fb-4ce0-8003-c5ac5c325811",
            "display": "atrial fibrillation"
          }
        ],
        "dosage": {
          "text": "As prescribed per protocol",
          "route": {
            "coding": [
              {
                "system": "http://snomed.info/sct",
                "code": "47625008",
                "display": "Intravenous route"
              }
            ]
          },
          "dose": {
            "value": 1,
            "unit": "dose",
            "system": "http://unitsofmeasure.org",
            "code": "1"
          }
        }
      },
      "request": {
        "method": "PUT",
        "url": "MedicationAdministration/7dafbf46-d179-43f6-9e34-558c119ae6f5"
      }
    },
    {
      "resource": {
        "resourceType": "MedicationAdministration",
        "id": "6b1acd48-38a9-4062-9411-8f69ff496788",
        "status": "completed",
        "medicationCodeableConcept": {
          "coding": [
            {
              "system": "http://www.nlm.nih.gov/research/umls/rxnorm",
              "code": "123456",
              "display": "Furosemide"
            }
          ],
          "text": "Furosemide"
        },
        "subject": {
          "reference": "Patient/7e8d45ee-ccc2-4748-b14d-18833d7873d4",
          "display": "Aisha Chen"
        },
        "context": {
          "reference": "Encounter/a4cb4813-65dc-42a4-b9cd-a437ae1ecc37"
        },
        "effectiveDateTime": "2021-03-05",
        "performer": [
          {
            "actor": {
              "reference": "Practitioner/a974dd1a-c762-41a2-967e-b05bf7a97492",
              "display": "Dr. Sarah Johnson"
            }
          }
        ],
        "reasonReference": [
          {
            "reference": "Condition/690bf278-42fb-4ce0-8003-c5ac5c325811",
            "display": "atrial fibrillation"
          }
        ],
        "dosage": {
          "text": "As prescribed per protocol",
          "route": {
            "coding": [
              {
                "system": "http://snomed.info/sct",
                "code": "47625008",
                "display": "Intravenous route"
              }
            ]
          },
          "dose": {
            "value": 1,
            "unit": "dose",
            "system": "http://unitsofmeasure.org",
            "code": "1"
          }
        }
      },
      "request": {
        "method": "PUT",
        "url": "MedicationAdministration/6b1acd48-38a9-4062-9411-8f69ff496788"
      }
    },
    {
      "resource": {
        "resourceType": "Encounter",
        "id": "63755b04-c73f-4445-b41f-16f5f9e7d358",
        "status": "finished",
        "class": {
          "system": "http://terminology.hl7.org/CodeSystem/v3-ActCode",
          "code": "AMB",
          "display": "Ambulatory"
        },
        "type": [
          {
            "coding": [
              {
                "system": "http://snomed.info/sct",
                "code": "308646001",
                "display": "Follow-up after cardioversion"
              }
            ],
            "text": "Follow-up after cardioversion"
          }
        ],
        "subject": {
          "reference": "Patient/7e8d45ee-ccc2-4748-b14d-18833d7873d4",
          "display": "Aisha Chen"
        },
        "participant": [
          {
            "individual": {
              "reference": "Practitioner/a974dd1a-c762-41a2-967e-b05bf7a97492",
              "display": "Dr. Sarah Johnson"
            }
          }
        ],
        "period": {
          "start": "2021-03-12"
        },
        "serviceProvider": {
          "reference": "Organization/c4f22d28-779b-4756-8982-1c3f9805b022",
          "display": "Comprehensive Cancer Center"
        },
        "reasonReference": [
          {
            "reference": "Condition/690bf278-42fb-4ce0-8003-c5ac5c325811",
            "display": "atrial fibrillation"
          }
        ]
      },
      "request": {
        "method": "PUT",
        "url": "Encounter/63755b04-c73f-4445-b41f-16f5f9e7d358"
      }
    },
    {
      "resource": {
        "resourceType": "Procedure",
        "id": "70659726-cdc3-4800-a055-d67dfa88002b",
        "status": "completed",
        "code": {
          "coding": [
            {
              "system": "http://snomed.info/sct",
              "code": "387713003",
              "display": "Echocardiogram"
            }
          ],
          "text": "Echocardiogram"
        },
        "subject": {
          "reference": "Patient/7e8d45ee-ccc2-4748-b14d-18833d7873d4",
          "display": "Aisha Chen"
        },
        "encounter": {
          "reference": "Encounter/63755b04-c73f-4445-b41f-16f5f9e7d358"
        },
        "performedDateTime": "2021-03-12",
        "performer": [
          {
            "actor": {
              "reference": "Practitioner/a974dd1a-c762-41a2-967e-b05bf7a97492",
              "display": "Dr. Sarah Johnson"
            }
          }
        ],
        "reasonReference": [
          {
            "reference": "Condition/690bf278-42fb-4ce0-8003-c5ac5c325811",
            "display": "atrial fibrillation"
          }
        ]
      },
      "request": {
        "method": "PUT",
        "url": "Procedure/70659726-cdc3-4800-a055-d67dfa88002b"
      }
    },
    {
      "resource": {
        "resourceType": "MedicationAdministration",
        "id": "b843f1b9-bc65-46c6-908d-7da38959060f",
        "status": "completed",
        "medicationCodeableConcept": {
          "coding": [
            {
              "system": "http://www.nlm.nih.gov/research/umls/rxnorm",
              "code": "123456",
              "display": "Warfarin"
            }
          ],
          "text": "Warfarin"
        },
        "subject": {
          "reference": "Patient/7e8d45ee-ccc2-4748-b14d-18833d7873d4",
          "display": "Aisha Chen"
        },
        "context": {
          "reference": "Encounter/63755b04-c73f-4445-b41f-16f5f9e7d358"
        },
        "effectiveDateTime": "2021-03-12",
        "performer": [
          {
            "actor": {
              "reference": "Practitioner/a974dd1a-c762-41a2-967e-b05bf7a97492",
              "display": "Dr. Sarah Johnson"
            }
          }
        ],
        "reasonReference": [
          {
            "reference": "Condition/690bf278-42fb-4ce0-8003-c5ac5c325811",
            "display": "atrial fibrillation"
          }
        ],
        "dosage": {
          "text": "As prescribed per protocol",
          "route": {
            "coding": [
              {
                "system": "http://snomed.info/sct",
                "code": "47625008",
                "display": "Intravenous route"
              }
            ]
          },
          "dose": {
            "value": 1,
            "unit": "dose",
            "system": "http://unitsofmeasure.org",
            "code": "1"
          }
        }
      },
      "request": {
        "method": "PUT",
        "url": "MedicationAdministration/b843f1b9-bc65-46c6-908d-7da38959060f"
      }
    },
    {
      "resource": {
        "resourceType": "Encounter",
        "id": "14cd8947-11e4-41c8-968d-2a6c5baea642",
        "status": "finished",
        "class": {
          "system": "http://terminology.hl7.org/CodeSystem/v3-ActCode",
          "code": "IMP",
          "display": "Inpatient"
        },
        "type": [
          {
            "coding": [
              {
                "system": "http://snomed.info/sct",
                "code": "308646001",
                "display": "Ablation procedure"
              }
            ],
            "text": "Ablation procedure"
          }
        ],
        "subject": {
          "reference": "Patient/7e8d45ee-ccc2-4748-b14d-18833d7873d4",
          "display": "Aisha Chen"
        },
        "participant": [
          {
            "individual": {
              "reference": "Practitioner/a974dd1a-c762-41a2-967e-b05bf7a97492",
              "display": "Dr. Sarah Johnson"
            }
          }
        ],
        "period": {
          "start": "2021-03-20"
        },
        "serviceProvider": {
          "reference": "Organization/c4f22d28-779b-4756-8982-1c3f9805b022",
          "display": "Comprehensive Cancer Center"
        },
        "reasonReference": [
          {
            "reference": "Condition/690bf278-42fb-4ce0-8003-c5ac5c325811",
            "display": "atrial fibrillation"
          }
        ]
      },
      "request": {
        "method": "PUT",
        "url": "Encounter/14cd8947-11e4-41c8-968d-2a6c5baea642"
      }
    },
    {
      "resource": {
        "resourceType": "Procedure",
        "id": "58d12368-8cd6-4831-8903-7039c456050d",
        "status": "completed",
        "code": {
          "coding": [
            {
              "system": "http://snomed.info/sct",
              "code": "387713003",
              "display": "Ablation"
            }
          ],
          "text": "Ablation"
        },
        "subject": {
          "reference": "Patient/7e8d45ee-ccc2-4748-b14d-18833d7873d4",
          "display": "Aisha Chen"
        },
        "encounter": {
          "reference": "Encounter/14cd8947-11e4-41c8-968d-2a6c5baea642"
        },
        "performedDateTime": "2021-03-20",
        "performer": [
          {
            "actor": {
              "reference": "Practitioner/a974dd1a-c762-41a2-967e-b05bf7a97492",
              "display": "Dr. Sarah Johnson"
            }
          }
        ],
        "reasonReference": [
          {
            "reference": "Condition/690bf278-42fb-4ce0-8003-c5ac5c325811",
            "display": "atrial fibrillation"
          }
        ]
      },
      "request": {
        "method": "PUT",
        "url": "Procedure/58d12368-8cd6-4831-8903-7039c456050d"
      }
    },
    {
      "resource": {
        "resourceType": "MedicationAdministration",
        "id": "45fa235e-4063-4b8e-a605-e90370bdbb1f",
        "status": "completed",
        "medicationCodeableConcept": {
          "coding": [
            {
              "system": "http://www.nlm.nih.gov/research/umls/rxnorm",
              "code": "123456",
              "display": "Propafenone"
            }
          ],
          "text": "Propafenone"
        },
        "subject": {
          "reference": "Patient/7e8d45ee-ccc2-4748-b14d-18833d7873d4",
          "display": "Aisha Chen"
        },
        "context": {
          "reference": "Encounter/14cd8947-11e4-41c8-968d-2a6c5baea642"
        },
        "effectiveDateTime": "2021-03-20",
        "performer": [
          {
            "actor": {
              "reference": "Practitioner/a974dd1a-c762-41a2-967e-b05bf7a97492",
              "display": "Dr. Sarah Johnson"
            }
          }
        ],
        "reasonReference": [
          {
            "reference": "Condition/690bf278-42fb-4ce0-8003-c5ac5c325811",
            "display": "atrial fibrillation"
          }
        ],
        "dosage": {
          "text": "As prescribed per protocol",
          "route": {
            "coding": [
              {
                "system": "http://snomed.info/sct",
                "code": "47625008",
                "display": "Intravenous route"
              }
            ]
          },
          "dose": {
            "value": 1,
            "unit": "dose",
            "system": "http://unitsofmeasure.org",
            "code": "1"
          }
        }
      },
      "request": {
        "method": "PUT",
        "url": "MedicationAdministration/45fa235e-4063-4b8e-a605-e90370bdbb1f"
      }
    },
    {
      "resource": {
        "resourceType": "MedicationAdministration",
        "id": "e5f0b267-83a9-4f4b-9a2f-04979277ab91",
        "status": "completed",
        "medicationCodeableConcept": {
          "coding": [
            {
              "system": "http://www.nlm.nih.gov/research/umls/rxnorm",
              "code": "123456",
              "display": "Apixaban"
            }
          ],
          "text": "Apixaban"
        },
        "subject": {
          "reference": "Patient/7e8d45ee-ccc2-4748-b14d-18833d7873d4",
          "display": "Aisha Chen"
        },
        "context": {
          "reference": "Encounter/14cd8947-11e4-41c8-968d-2a6c5baea642"
        },
        "effectiveDateTime": "2021-03-20",
        "performer": [
          {
            "actor": {
              "reference": "Practitioner/a974dd1a-c762-41a2-967e-b05bf7a97492",
              "display": "Dr. Sarah Johnson"
            }
          }
        ],
        "reasonReference": [
          {
            "reference": "Condition/690bf278-42fb-4ce0-8003-c5ac5c325811",
            "display": "atrial fibrillation"
          }
        ],
        "dosage": {
          "text": "As prescribed per protocol",
          "route": {
            "coding": [
              {
                "system": "http://snomed.info/sct",
                "code": "47625008",
                "display": "Intravenous route"
              }
            ]
          },
          "dose": {
            "value": 1,
            "unit": "dose",
            "system": "http://unitsofmeasure.org",
            "code": "1"
          }
        }
      },
      "request": {
        "method": "PUT",
        "url": "MedicationAdministration/e5f0b267-83a9-4f4b-9a2f-04979277ab91"
      }
    },
    {
      "resource": {
        "resourceType": "Encounter",
        "id": "21a4f01a-1678-4463-aa79-c15163b61dde",
        "status": "finished",
        "class": {
          "system": "http://terminology.hl7.org/CodeSystem/v3-ActCode",
          "code": "AMB",
          "display": "Ambulatory"
        },
        "type": [
          {
            "coding": [
              {
                "system": "http://snomed.info/sct",
                "code": "308646001",
                "display": "Follow-up after ablation"
              }
            ],
            "text": "Follow-up after ablation"
          }
        ],
        "subject": {
          "reference": "Patient/7e8d45ee-ccc2-4748-b14d-18833d7873d4",
          "display": "Aisha Chen"
        },
        "participant": [
          {
            "individual": {
              "reference": "Practitioner/a974dd1a-c762-41a2-967e-b05bf7a97492",
              "display": "Dr. Sarah Johnson"
            }
          }
        ],
        "period": {
          "start": "2021-04-10"
        },
        "serviceProvider": {
          "reference": "Organization/c4f22d28-779b-4756-8982-1c3f9805b022",
          "display": "Comprehensive Cancer Center"
        },
        "reasonReference": [
          {
            "reference": "Condition/690bf278-42fb-4ce0-8003-c5ac5c325811",
            "display": "atrial fibrillation"
          }
        ]
      },
      "request": {
        "method": "PUT",
        "url": "Encounter/21a4f01a-1678-4463-aa79-c15163b61dde"
      }
    },
    {
      "resource": {
        "resourceType": "Procedure",
        "id": "4c519104-c9d7-4c79-b095-b50907f761e2",
        "status": "completed",
        "code": {
          "coding": [
            {
              "system": "http://snomed.info/sct",
              "code": "387713003",
              "display": "Holter monitor"
            }
          ],
          "text": "Holter monitor"
        },
        "subject": {
          "reference": "Patient/7e8d45ee-ccc2-4748-b14d-18833d7873d4",
          "display": "Aisha Chen"
        },
        "encounter": {
          "reference": "Encounter/21a4f01a-1678-4463-aa79-c15163b61dde"
        },
        "performedDateTime": "2021-04-10",
        "performer": [
          {
            "actor": {
              "reference": "Practitioner/a974dd1a-c762-41a2-967e-b05bf7a97492",
              "display": "Dr. Sarah Johnson"
            }
          }
        ],
        "reasonReference": [
          {
            "reference": "Condition/690bf278-42fb-4ce0-8003-c5ac5c325811",
            "display": "atrial fibrillation"
          }
        ]
      },
      "request": {
        "method": "PUT",
        "url": "Procedure/4c519104-c9d7-4c79-b095-b50907f761e2"
      }
    },
    {
      "resource": {
        "resourceType": "MedicationAdministration",
        "id": "96a8f56e-f062-44ab-ad12-8544d8c9d60d",
        "status": "completed",
        "medicationCodeableConcept": {
          "coding": [
            {
              "system": "http://www.nlm.nih.gov/research/umls/rxnorm",
              "code": "123456",
              "display": "Metoprolol"
            }
          ],
          "text": "Metoprolol"
        },
        "subject": {
          "reference": "Patient/7e8d45ee-ccc2-4748-b14d-18833d7873d4",
          "display": "Aisha Chen"
        },
        "context": {
          "reference": "Encounter/21a4f01a-1678-4463-aa79-c15163b61dde"
        },
        "effectiveDateTime": "2021-04-10",
        "performer": [
          {
            "actor": {
              "reference": "Practitioner/a974dd1a-c762-41a2-967e-b05bf7a97492",
              "display": "Dr. Sarah Johnson"
            }
          }
        ],
        "reasonReference": [
          {
            "reference": "Condition/690bf278-42fb-4ce0-8003-c5ac5c325811",
            "display": "atrial fibrillation"
          }
        ],
        "dosage": {
          "text": "As prescribed per protocol",
          "route": {
            "coding": [
              {
                "system": "http://snomed.info/sct",
                "code": "47625008",
                "display": "Intravenous route"
              }
            ]
          },
          "dose": {
            "value": 1,
            "unit": "dose",
            "system": "http://unitsofmeasure.org",
            "code": "1"
          }
        }
      },
      "request": {
        "method": "PUT",
        "url": "MedicationAdministration/96a8f56e-f062-44ab-ad12-8544d8c9d60d"
      }
    },
    {
      "resource": {
        "resourceType": "Encounter",
        "id": "5fde3b98-0e95-4409-8525-fb5be7bed361",
        "status": "finished",
        "class": {
          "system": "http://terminology.hl7.org/CodeSystem/v3-ActCode",
          "code": "AMB",
          "display": "Ambulatory"
        },
        "type": [
          {
            "coding": [
              {
                "system": "http://snomed.info/sct",
                "code": "308646001",
                "display": "Routine follow-up visit"
              }
            ],
            "text": "Routine follow-up visit"
          }
        ],
        "subject": {
          "reference": "Patient/7e8d45ee-ccc2-4748-b14d-18833d7873d4",
          "display": "Aisha Chen"
        },
        "participant": [
          {
            "individual": {
              "reference": "Practitioner/a974dd1a-c762-41a2-967e-b05bf7a97492",
              "display": "Dr. Sarah Johnson"
            }
          }
        ],
        "period": {
          "start": "2021-04-15"
        },
        "serviceProvider": {
          "reference": "Organization/c4f22d28-779b-4756-8982-1c3f9805b022",
          "display": "Comprehensive Cancer Center"
        },
        "reasonReference": [
          {
            "reference": "Condition/690bf278-42fb-4ce0-8003-c5ac5c325811",
            "display": "atrial fibrillation"
          }
        ]
      },
      "request": {
        "method": "PUT",
        "url": "Encounter/5fde3b98-0e95-4409-8525-fb5be7bed361"
      }
    },
    {
      "resource": {
        "resourceType": "Encounter",
        "id": "2d7c2ccf-4474-48de-a396-31689b4cbb89",
        "status": "finished",
        "class": {
          "system": "http://terminology.hl7.org/CodeSystem/v3-ActCode",
          "code": "AMB",
          "display": "Ambulatory"
        },
        "type": [
          {
            "coding": [
              {
                "system": "http://snomed.info/sct",
                "code": "308646001",
                "display": "Holter monitor analysis"
              }
            ],
            "text": "Holter monitor analysis"
          }
        ],
        "subject": {
          "reference": "Patient/7e8d45ee-ccc2-4748-b14d-18833d7873d4",
          "display": "Aisha Chen"
        },
        "participant": [
          {
            "individual": {
              "reference": "Practitioner/a974dd1a-c762-41a2-967e-b05bf7a97492",
              "display": "Dr. Sarah Johnson"
            }
          }
        ],
        "period": {
          "start": "2021-04-30"
        },
        "serviceProvider": {
          "reference": "Organization/c4f22d28-779b-4756-8982-1c3f9805b022",
          "display": "Comprehensive Cancer Center"
        },
        "reasonReference": [
          {
            "reference": "Condition/690bf278-42fb-4ce0-8003-c5ac5c325811",
            "display": "atrial fibrillation"
          }
        ]
      },
      "request": {
        "method": "PUT",
        "url": "Encounter/2d7c2ccf-4474-48de-a396-31689b4cbb89"
      }
    },
    {
      "resource": {
        "resourceType": "DiagnosticReport",
        "status": "final",
        "category": [
          {
            "coding": [
              {
                "system": "http://terminology.hl7.org/CodeSystem/v2-0074",
                "code": "RAD",
                "display": "Radiology"
              }
            ]
          }
        ],
        "code": {
          "coding": [
            {
              "system": "http://loinc.org",
              "code": "18748-4",
              "display": "Diagnostic imaging study"
            }
          ]
        },
        "subject": {
          "reference": "Patient/7e8d45ee-ccc2-4748-b14d-18833d7873d4",
          "display": "Aisha Chen"
        },
        "effectiveDateTime": "2021-04-15",
        "performer": [
          {
            "reference": "Practitioner/a974dd1a-c762-41a2-967e-b05bf7a97492",
            "display": "Dr. Sarah Johnson"
          }
        ],
        "conclusion": "Patient shows improving status for atrial fibrillation. Aisha Chen, a 55-year-old Asian female, presented with severe atrial fibrillation. She underwent cardioversion followed by ablation therapy. Currently improving with regular follow-ups."
      },
      "request": {
        "method": "POST",
        "url": "DiagnosticReport"
      }
    },
    {
      "resource": {
        "resourceType": "Observation",
        "status": "final",
        "category": [
          {
            "coding": [
              {
                "system": "http://terminology.hl7.org/CodeSystem/observation-category",
                "code": "clinical",
                "display": "Clinical"
              }
            ]
          }
        ],
        "code": {
          "coding": [
            {
              "system": "http://loinc.org",
              "code": "11323-3",
              "display": "Health status"
            }
          ]
        },
        "subject": {
          "reference": "Patient/7e8d45ee-ccc2-4748-b14d-18833d7873d4",
          "display": "Aisha Chen"
        },
        "valueString": "improving",
        "effectiveDateTime": "2021-04-15"
      },
      "request": {
        "method": "POST",
        "url": "Observation"
      }
    }
  ]
}