{
  "resourceType": "Bundle",
  "id": "b6162f5e-b140-4d9a-8bcb-b21903c23408",
  "type": "transaction",
  "entry": [
    {
      "resource": {
        "resourceType": "Patient",
        "id": "07b4bb18-ad05-447e-b610-bdcf8e98d69f",
        "name": [
          {
            "use": "official",
            "family": "Garcia",
            "given": [
              "Aisha"
            ]
          }
        ],
        "gender": "female",
        "birthDate": "1965-09-12",
        "address": [
          {
            "use": "home",
            "line": [
              "789 Maple Street"
            ],
            "city": "Miami",
            "state": "FL",
            "postalCode": "33101",
            "country": "USA"
          }
        ],
        "telecom": [
          {
            "system": "phone",
            "value": "(305) 555-1234",
            "use": "home"
          },
          {
            "system": "email",
            "value": "aisha.garcia@example.com",
            "use": "home"
          }
        ],
        "extension": [
          {
            "url": "http://hl7.org/fhir/us/core/StructureDefinition/us-core-ethnicity",
            "valueString": "Hispanic"
          }
        ]
      },
      "request": {
        "method": "PUT",
        "url": "Patient/07b4bb18-ad05-447e-b610-bdcf8e98d69f"
      }
    },
    {
      "resource": {
        "resourceType": "Practitioner",
        "id": "f1ddd97a-5867-4c8a-9c77-afb927454b7f",
        "name": [
          {
            "use": "official",
            "family": "Johnson",
            "given": [
              "Dr. Sarah"
            ],
            "prefix": [
              "Dr."
            ]
          }
        ],
        "qualification": [
          {
            "code": {
              "coding": [
                {
                  "system": "http://terminology.hl7.org/CodeSystem/v2-0360",
                  "code": "MD",
                  "display": "Doctor of Medicine"
                }
              ]
            }
          }
        ]
      },
      "request": {
        "method": "PUT",
        "url": "Practitioner/f1ddd97a-5867-4c8a-9c77-afb927454b7f"
      }
    },
    {
      "resource": {
        "resourceType": "Organization",
        "id": "d5c87ffe-2e71-4fbf-bd04-e6bea58fe647",
        "name": "Comprehensive Cancer Center",
        "type": [
          {
            "coding": [
              {
                "system": "http://terminology.hl7.org/CodeSystem/organization-type",
                "code": "prov",
                "display": "Healthcare Provider"
              }
            ]
          }
        ]
      },
      "request": {
        "method": "PUT",
        "url": "Organization/d5c87ffe-2e71-4fbf-bd04-e6bea58fe647"
      }
    },
    {
      "resource": {
        "resourceType": "Condition",
        "id": "5929f809-a4a8-40a3-a4de-7bab7477e9c1",
        "clinicalStatus": {
          "coding": [
            {
              "system": "http://terminology.hl7.org/CodeSystem/condition-clinical",
              "code": "resolved",
              "display": "Resolved"
            }
          ]
        },
        "verificationStatus": {
          "coding": [
            {
              "system": "http://terminology.hl7.org/CodeSystem/condition-ver-status",
              "code": "confirmed",
              "display": "Confirmed"
            }
          ]
        },
        "code": {
          "coding": [
            {
              "system": "http://snomed.info/sct",
              "code": "49436004",
              "display": "atrial fibrillation"
            }
          ],
          "text": "atrial fibrillation"
        },
        "subject": {
          "reference": "Patient/07b4bb18-ad05-447e-b610-bdcf8e98d69f",
          "display": "Aisha Garcia"
        },
        "onsetDateTime": "2021-03-05",
        "recordedDate": "2021-03-10"
      },
      "request": {
        "method": "PUT",
        "url": "Condition/5929f809-a4a8-40a3-a4de-7bab7477e9c1"
      }
    },
    {
      "resource": {
        "resourceType": "CarePlan",
        "id": "e7fcd92b-7323-4287-ac43-5059d948d9a9",
        "status": "active",
        "intent": "plan",
        "title": "Treatment plan for atrial fibrillation",
        "description": "Comprehensive treatment plan including Cardioversion Procedure, Medication Adjustment",
        "subject": {
          "reference": "Patient/07b4bb18-ad05-447e-b610-bdcf8e98d69f",
          "display": "Aisha Garcia"
        },
        "period": {
          "start": "2021-03-15"
        },
        "addresses": [
          {
            "reference": "Condition/5929f809-a4a8-40a3-a4de-7bab7477e9c1",
            "display": "atrial fibrillation"
          }
        ],
        "author": [
          {
            "reference": "Practitioner/f1ddd97a-5867-4c8a-9c77-afb927454b7f",
            "display": "Dr. Sarah Johnson"
          }
        ]
      },
      "request": {
        "method": "PUT",
        "url": "CarePlan/e7fcd92b-7323-4287-ac43-5059d948d9a9"
      }
    },
    {
      "resource": {
        "resourceType": "Encounter",
        "id": "b34d03b5-414c-498f-a040-e51a236e4b50",
        "status": "finished",
        "class": {
          "system": "http://terminology.hl7.org/CodeSystem/v3-ActCode",
          "code": "IMP",
          "display": "Inpatient"
        },
        "type": [
          {
            "coding": [
              {
                "system": "http://snomed.info/sct",
                "code": "308646001",
                "display": "Cardioversion procedure"
              }
            ],
            "text": "Cardioversion procedure"
          }
        ],
        "subject": {
          "reference": "Patient/07b4bb18-ad05-447e-b610-bdcf8e98d69f",
          "display": "Aisha Garcia"
        },
        "participant": [
          {
            "individual": {
              "reference": "Practitioner/f1ddd97a-5867-4c8a-9c77-afb927454b7f",
              "display": "Dr. Sarah Johnson"
            }
          }
        ],
        "period": {
          "start": "2021-03-15"
        },
        "serviceProvider": {
          "reference": "Organization/d5c87ffe-2e71-4fbf-bd04-e6bea58fe647",
          "display": "Comprehensive Cancer Center"
        },
        "reasonReference": [
          {
            "reference": "Condition/5929f809-a4a8-40a3-a4de-7bab7477e9c1",
            "display": "atrial fibrillation"
          }
        ]
      },
      "request": {
        "method": "PUT",
        "url": "Encounter/b34d03b5-414c-498f-a040-e51a236e4b50"
      }
    },
    {
      "resource": {
        "resourceType": "Procedure",
        "id": "8c5ba09d-530c-413b-9f3f-31954777e822",
        "status": "completed",
        "code": {
          "coding": [
            {
              "system": "http://snomed.info/sct",
              "code": "387713003",
              "display": "Cardioversion"
            }
          ],
          "text": "Cardioversion"
        },
        "subject": {
          "reference": "Patient/07b4bb18-ad05-447e-b610-bdcf8e98d69f",
          "display": "Aisha Garcia"
        },
        "encounter": {
          "reference": "Encounter/b34d03b5-414c-498f-a040-e51a236e4b50"
        },
        "performedDateTime": "2021-03-15",
        "performer": [
          {
            "actor": {
              "reference": "Practitioner/f1ddd97a-5867-4c8a-9c77-afb927454b7f",
              "display": "Dr. Sarah Johnson"
            }
          }
        ],
        "reasonReference": [
          {
            "reference": "Condition/5929f809-a4a8-40a3-a4de-7bab7477e9c1",
            "display": "atrial fibrillation"
          }
        ]
      },
      "request": {
        "method": "PUT",
        "url": "Procedure/8c5ba09d-530c-413b-9f3f-31954777e822"
      }
    },
    {
      "resource": {
        "resourceType": "MedicationAdministration",
        "id": "dce95f5c-cd14-492a-bdd0-fee4b2aa3e12",
        "status": "completed",
        "medicationCodeableConcept": {
          "coding": [
            {
              "system": "http://www.nlm.nih.gov/research/umls/rxnorm",
              "code": "123456",
              "display": "Amiodarone"
            }
          ],
          "text": "Amiodarone"
        },
        "subject": {
          "reference": "Patient/07b4bb18-ad05-447e-b610-bdcf8e98d69f",
          "display": "Aisha Garcia"
        },
        "context": {
          "reference": "Encounter/b34d03b5-414c-498f-a040-e51a236e4b50"
        },
        "effectiveDateTime": "2021-03-15",
        "performer": [
          {
            "actor": {
              "reference": "Practitioner/f1ddd97a-5867-4c8a-9c77-afb927454b7f",
              "display": "Dr. Sarah Johnson"
            }
          }
        ],
        "reasonReference": [
          {
            "reference": "Condition/5929f809-a4a8-40a3-a4de-7bab7477e9c1",
            "display": "atrial fibrillation"
          }
        ],
        "dosage": {
          "text": "As prescribed per protocol",
          "route": {
            "coding": [
              {
                "system": "http://snomed.info/sct",
                "code": "47625008",
                "display": "Intravenous route"
              }
            ]
          },
          "dose": {
            "value": 1,
            "unit": "dose",
            "system": "http://unitsofmeasure.org",
            "code": "1"
          }
        }
      },
      "request": {
        "method": "PUT",
        "url": "MedicationAdministration/dce95f5c-cd14-492a-bdd0-fee4b2aa3e12"
      }
    },
    {
      "resource": {
        "resourceType": "MedicationAdministration",
        "id": "55bd4ea5-beff-4bd3-aa82-246264314676",
        "status": "completed",
        "medicationCodeableConcept": {
          "coding": [
            {
              "system": "http://www.nlm.nih.gov/research/umls/rxnorm",
              "code": "123456",
              "display": "Apixaban"
            }
          ],
          "text": "Apixaban"
        },
        "subject": {
          "reference": "Patient/07b4bb18-ad05-447e-b610-bdcf8e98d69f",
          "display": "Aisha Garcia"
        },
        "context": {
          "reference": "Encounter/b34d03b5-414c-498f-a040-e51a236e4b50"
        },
        "effectiveDateTime": "2021-03-15",
        "performer": [
          {
            "actor": {
              "reference": "Practitioner/f1ddd97a-5867-4c8a-9c77-afb927454b7f",
              "display": "Dr. Sarah Johnson"
            }
          }
        ],
        "reasonReference": [
          {
            "reference": "Condition/5929f809-a4a8-40a3-a4de-7bab7477e9c1",
            "display": "atrial fibrillation"
          }
        ],
        "dosage": {
          "text": "As prescribed per protocol",
          "route": {
            "coding": [
              {
                "system": "http://snomed.info/sct",
                "code": "47625008",
                "display": "Intravenous route"
              }
            ]
          },
          "dose": {
            "value": 1,
            "unit": "dose",
            "system": "http://unitsofmeasure.org",
            "code": "1"
          }
        }
      },
      "request": {
        "method": "PUT",
        "url": "MedicationAdministration/55bd4ea5-beff-4bd3-aa82-246264314676"
      }
    },
    {
      "resource": {
        "resourceType": "Encounter",
        "id": "135d61be-8db3-407c-8505-80871dcb77e2",
        "status": "finished",
        "class": {
          "system": "http://terminology.hl7.org/CodeSystem/v3-ActCode",
          "code": "AMB",
          "display": "Ambulatory"
        },
        "type": [
          {
            "coding": [
              {
                "system": "http://snomed.info/sct",
                "code": "308646001",
                "display": "Follow-up after cardioversion"
              }
            ],
            "text": "Follow-up after cardioversion"
          }
        ],
        "subject": {
          "reference": "Patient/07b4bb18-ad05-447e-b610-bdcf8e98d69f",
          "display": "Aisha Garcia"
        },
        "participant": [
          {
            "individual": {
              "reference": "Practitioner/f1ddd97a-5867-4c8a-9c77-afb927454b7f",
              "display": "Dr. Sarah Johnson"
            }
          }
        ],
        "period": {
          "start": "2021-04-05"
        },
        "serviceProvider": {
          "reference": "Organization/d5c87ffe-2e71-4fbf-bd04-e6bea58fe647",
          "display": "Comprehensive Cancer Center"
        },
        "reasonReference": [
          {
            "reference": "Condition/5929f809-a4a8-40a3-a4de-7bab7477e9c1",
            "display": "atrial fibrillation"
          }
        ]
      },
      "request": {
        "method": "PUT",
        "url": "Encounter/135d61be-8db3-407c-8505-80871dcb77e2"
      }
    },
    {
      "resource": {
        "resourceType": "Procedure",
        "id": "bb9c03d5-3ae0-41f4-906a-bc3af4a887df",
        "status": "completed",
        "code": {
          "coding": [
            {
              "system": "http://snomed.info/sct",
              "code": "387713003",
              "display": "EKG"
            }
          ],
          "text": "EKG"
        },
        "subject": {
          "reference": "Patient/07b4bb18-ad05-447e-b610-bdcf8e98d69f",
          "display": "Aisha Garcia"
        },
        "encounter": {
          "reference": "Encounter/135d61be-8db3-407c-8505-80871dcb77e2"
        },
        "performedDateTime": "2021-04-05",
        "performer": [
          {
            "actor": {
              "reference": "Practitioner/f1ddd97a-5867-4c8a-9c77-afb927454b7f",
              "display": "Dr. Sarah Johnson"
            }
          }
        ],
        "reasonReference": [
          {
            "reference": "Condition/5929f809-a4a8-40a3-a4de-7bab7477e9c1",
            "display": "atrial fibrillation"
          }
        ]
      },
      "request": {
        "method": "PUT",
        "url": "Procedure/bb9c03d5-3ae0-41f4-906a-bc3af4a887df"
      }
    },
    {
      "resource": {
        "resourceType": "MedicationAdministration",
        "id": "7645db77-c373-495f-8763-e5a884515ba2",
        "status": "completed",
        "medicationCodeableConcept": {
          "coding": [
            {
              "system": "http://www.nlm.nih.gov/research/umls/rxnorm",
              "code": "123456",
              "display": "Apixaban"
            }
          ],
          "text": "Apixaban"
        },
        "subject": {
          "reference": "Patient/07b4bb18-ad05-447e-b610-bdcf8e98d69f",
          "display": "Aisha Garcia"
        },
        "context": {
          "reference": "Encounter/135d61be-8db3-407c-8505-80871dcb77e2"
        },
        "effectiveDateTime": "2021-04-05",
        "performer": [
          {
            "actor": {
              "reference": "Practitioner/f1ddd97a-5867-4c8a-9c77-afb927454b7f",
              "display": "Dr. Sarah Johnson"
            }
          }
        ],
        "reasonReference": [
          {
            "reference": "Condition/5929f809-a4a8-40a3-a4de-7bab7477e9c1",
            "display": "atrial fibrillation"
          }
        ],
        "dosage": {
          "text": "As prescribed per protocol",
          "route": {
            "coding": [
              {
                "system": "http://snomed.info/sct",
                "code": "47625008",
                "display": "Intravenous route"
              }
            ]
          },
          "dose": {
            "value": 1,
            "unit": "dose",
            "system": "http://unitsofmeasure.org",
            "code": "1"
          }
        }
      },
      "request": {
        "method": "PUT",
        "url": "MedicationAdministration/7645db77-c373-495f-8763-e5a884515ba2"
      }
    },
    {
      "resource": {
        "resourceType": "Encounter",
        "id": "26bce88c-6e23-4131-99fc-1535d080ca3d",
        "status": "finished",
        "class": {
          "system": "http://terminology.hl7.org/CodeSystem/v3-ActCode",
          "code": "AMB",
          "display": "Ambulatory"
        },
        "type": [
          {
            "coding": [
              {
                "system": "http://snomed.info/sct",
                "code": "308646001",
                "display": "Medication review"
              }
            ],
            "text": "Medication review"
          }
        ],
        "subject": {
          "reference": "Patient/07b4bb18-ad05-447e-b610-bdcf8e98d69f",
          "display": "Aisha Garcia"
        },
        "participant": [
          {
            "individual": {
              "reference": "Practitioner/f1ddd97a-5867-4c8a-9c77-afb927454b7f",
              "display": "Dr. Sarah Johnson"
            }
          }
        ],
        "period": {
          "start": "2021-04-10"
        },
        "serviceProvider": {
          "reference": "Organization/d5c87ffe-2e71-4fbf-bd04-e6bea58fe647",
          "display": "Comprehensive Cancer Center"
        },
        "reasonReference": [
          {
            "reference": "Condition/5929f809-a4a8-40a3-a4de-7bab7477e9c1",
            "display": "atrial fibrillation"
          }
        ]
      },
      "request": {
        "method": "PUT",
        "url": "Encounter/26bce88c-6e23-4131-99fc-1535d080ca3d"
      }
    },
    {
      "resource": {
        "resourceType": "Procedure",
        "id": "ede94d01-86e8-47dd-b772-51b941ad39b3",
        "status": "completed",
        "code": {
          "coding": [
            {
              "system": "http://snomed.info/sct",
              "code": "387713003",
              "display": "Lab tests"
            }
          ],
          "text": "Lab tests"
        },
        "subject": {
          "reference": "Patient/07b4bb18-ad05-447e-b610-bdcf8e98d69f",
          "display": "Aisha Garcia"
        },
        "encounter": {
          "reference": "Encounter/26bce88c-6e23-4131-99fc-1535d080ca3d"
        },
        "performedDateTime": "2021-04-10",
        "performer": [
          {
            "actor": {
              "reference": "Practitioner/f1ddd97a-5867-4c8a-9c77-afb927454b7f",
              "display": "Dr. Sarah Johnson"
            }
          }
        ],
        "reasonReference": [
          {
            "reference": "Condition/5929f809-a4a8-40a3-a4de-7bab7477e9c1",
            "display": "atrial fibrillation"
          }
        ]
      },
      "request": {
        "method": "PUT",
        "url": "Procedure/ede94d01-86e8-47dd-b772-51b941ad39b3"
      }
    },
    {
      "resource": {
        "resourceType": "MedicationAdministration",
        "id": "845c3978-4b55-4f69-9f3b-3ac4d07301f7",
        "status": "completed",
        "medicationCodeableConcept": {
          "coding": [
            {
              "system": "http://www.nlm.nih.gov/research/umls/rxnorm",
              "code": "123456",
              "display": "Warfarin"
            }
          ],
          "text": "Warfarin"
        },
        "subject": {
          "reference": "Patient/07b4bb18-ad05-447e-b610-bdcf8e98d69f",
          "display": "Aisha Garcia"
        },
        "context": {
          "reference": "Encounter/26bce88c-6e23-4131-99fc-1535d080ca3d"
        },
        "effectiveDateTime": "2021-04-10",
        "performer": [
          {
            "actor": {
              "reference": "Practitioner/f1ddd97a-5867-4c8a-9c77-afb927454b7f",
              "display": "Dr. Sarah Johnson"
            }
          }
        ],
        "reasonReference": [
          {
            "reference": "Condition/5929f809-a4a8-40a3-a4de-7bab7477e9c1",
            "display": "atrial fibrillation"
          }
        ],
        "dosage": {
          "text": "As prescribed per protocol",
          "route": {
            "coding": [
              {
                "system": "http://snomed.info/sct",
                "code": "47625008",
                "display": "Intravenous route"
              }
            ]
          },
          "dose": {
            "value": 1,
            "unit": "dose",
            "system": "http://unitsofmeasure.org",
            "code": "1"
          }
        }
      },
      "request": {
        "method": "PUT",
        "url": "MedicationAdministration/845c3978-4b55-4f69-9f3b-3ac4d07301f7"
      }
    },
    {
      "resource": {
        "resourceType": "Encounter",
        "id": "001b0d50-fcee-458c-a7ab-da1eb7211456",
        "status": "finished",
        "class": {
          "system": "http://terminology.hl7.org/CodeSystem/v3-ActCode",
          "code": "AMB",
          "display": "Ambulatory"
        },
        "type": [
          {
            "coding": [
              {
                "system": "http://snomed.info/sct",
                "code": "308646001",
                "display": "Follow-up for medication adjustment"
              }
            ],
            "text": "Follow-up for medication adjustment"
          }
        ],
        "subject": {
          "reference": "Patient/07b4bb18-ad05-447e-b610-bdcf8e98d69f",
          "display": "Aisha Garcia"
        },
        "participant": [
          {
            "individual": {
              "reference": "Practitioner/f1ddd97a-5867-4c8a-9c77-afb927454b7f",
              "display": "Dr. Sarah Johnson"
            }
          }
        ],
        "period": {
          "start": "2021-05-01"
        },
        "serviceProvider": {
          "reference": "Organization/d5c87ffe-2e71-4fbf-bd04-e6bea58fe647",
          "display": "Comprehensive Cancer Center"
        },
        "reasonReference": [
          {
            "reference": "Condition/5929f809-a4a8-40a3-a4de-7bab7477e9c1",
            "display": "atrial fibrillation"
          }
        ]
      },
      "request": {
        "method": "PUT",
        "url": "Encounter/001b0d50-fcee-458c-a7ab-da1eb7211456"
      }
    },
    {
      "resource": {
        "resourceType": "Procedure",
        "id": "37027efb-59c6-493a-8db4-cae68b5448c9",
        "status": "completed",
        "code": {
          "coding": [
            {
              "system": "http://snomed.info/sct",
              "code": "387713003",
              "display": "Echocardiogram"
            }
          ],
          "text": "Echocardiogram"
        },
        "subject": {
          "reference": "Patient/07b4bb18-ad05-447e-b610-bdcf8e98d69f",
          "display": "Aisha Garcia"
        },
        "encounter": {
          "reference": "Encounter/001b0d50-fcee-458c-a7ab-da1eb7211456"
        },
        "performedDateTime": "2021-05-01",
        "performer": [
          {
            "actor": {
              "reference": "Practitioner/f1ddd97a-5867-4c8a-9c77-afb927454b7f",
              "display": "Dr. Sarah Johnson"
            }
          }
        ],
        "reasonReference": [
          {
            "reference": "Condition/5929f809-a4a8-40a3-a4de-7bab7477e9c1",
            "display": "atrial fibrillation"
          }
        ]
      },
      "request": {
        "method": "PUT",
        "url": "Procedure/37027efb-59c6-493a-8db4-cae68b5448c9"
      }
    },
    {
      "resource": {
        "resourceType": "MedicationAdministration",
        "id": "6a9d562c-34ee-4999-bc7b-8d2aa28887a5",
        "status": "completed",
        "medicationCodeableConcept": {
          "coding": [
            {
              "system": "http://www.nlm.nih.gov/research/umls/rxnorm",
              "code": "123456",
              "display": "Warfarin"
            }
          ],
          "text": "Warfarin"
        },
        "subject": {
          "reference": "Patient/07b4bb18-ad05-447e-b610-bdcf8e98d69f",
          "display": "Aisha Garcia"
        },
        "context": {
          "reference": "Encounter/001b0d50-fcee-458c-a7ab-da1eb7211456"
        },
        "effectiveDateTime": "2021-05-01",
        "performer": [
          {
            "actor": {
              "reference": "Practitioner/f1ddd97a-5867-4c8a-9c77-afb927454b7f",
              "display": "Dr. Sarah Johnson"
            }
          }
        ],
        "reasonReference": [
          {
            "reference": "Condition/5929f809-a4a8-40a3-a4de-7bab7477e9c1",
            "display": "atrial fibrillation"
          }
        ],
        "dosage": {
          "text": "As prescribed per protocol",
          "route": {
            "coding": [
              {
                "system": "http://snomed.info/sct",
                "code": "47625008",
                "display": "Intravenous route"
              }
            ]
          },
          "dose": {
            "value": 1,
            "unit": "dose",
            "system": "http://unitsofmeasure.org",
            "code": "1"
          }
        }
      },
      "request": {
        "method": "PUT",
        "url": "MedicationAdministration/6a9d562c-34ee-4999-bc7b-8d2aa28887a5"
      }
    },
    {
      "resource": {
        "resourceType": "Encounter",
        "id": "7b08bb0c-a098-4365-8993-a09a0575dc09",
        "status": "finished",
        "class": {
          "system": "http://terminology.hl7.org/CodeSystem/v3-ActCode",
          "code": "AMB",
          "display": "Ambulatory"
        },
        "type": [
          {
            "coding": [
              {
                "system": "http://snomed.info/sct",
                "code": "308646001",
                "display": "Routine follow-up visit"
              }
            ],
            "text": "Routine follow-up visit"
          }
        ],
        "subject": {
          "reference": "Patient/07b4bb18-ad05-447e-b610-bdcf8e98d69f",
          "display": "Aisha Garcia"
        },
        "participant": [
          {
            "individual": {
              "reference": "Practitioner/f1ddd97a-5867-4c8a-9c77-afb927454b7f",
              "display": "Dr. Sarah Johnson"
            }
          }
        ],
        "period": {
          "start": "2021-05-15"
        },
        "serviceProvider": {
          "reference": "Organization/d5c87ffe-2e71-4fbf-bd04-e6bea58fe647",
          "display": "Comprehensive Cancer Center"
        },
        "reasonReference": [
          {
            "reference": "Condition/5929f809-a4a8-40a3-a4de-7bab7477e9c1",
            "display": "atrial fibrillation"
          }
        ]
      },
      "request": {
        "method": "PUT",
        "url": "Encounter/7b08bb0c-a098-4365-8993-a09a0575dc09"
      }
    },
    {
      "resource": {
        "resourceType": "Encounter",
        "id": "69de521a-7d05-4b14-a390-c332f6d79b96",
        "status": "finished",
        "class": {
          "system": "http://terminology.hl7.org/CodeSystem/v3-ActCode",
          "code": "AMB",
          "display": "Ambulatory"
        },
        "type": [
          {
            "coding": [
              {
                "system": "http://snomed.info/sct",
                "code": "308646001",
                "display": "Final follow-up"
              }
            ],
            "text": "Final follow-up"
          }
        ],
        "subject": {
          "reference": "Patient/07b4bb18-ad05-447e-b610-bdcf8e98d69f",
          "display": "Aisha Garcia"
        },
        "participant": [
          {
            "individual": {
              "reference": "Practitioner/f1ddd97a-5867-4c8a-9c77-afb927454b7f",
              "display": "Dr. Sarah Johnson"
            }
          }
        ],
        "period": {
          "start": "2021-06-10"
        },
        "serviceProvider": {
          "reference": "Organization/d5c87ffe-2e71-4fbf-bd04-e6bea58fe647",
          "display": "Comprehensive Cancer Center"
        },
        "reasonReference": [
          {
            "reference": "Condition/5929f809-a4a8-40a3-a4de-7bab7477e9c1",
            "display": "atrial fibrillation"
          }
        ]
      },
      "request": {
        "method": "PUT",
        "url": "Encounter/69de521a-7d05-4b14-a390-c332f6d79b96"
      }
    },
    {
      "resource": {
        "resourceType": "DiagnosticReport",
        "status": "final",
        "category": [
          {
            "coding": [
              {
                "system": "http://terminology.hl7.org/CodeSystem/v2-0074",
                "code": "RAD",
                "display": "Radiology"
              }
            ]
          }
        ],
        "code": {
          "coding": [
            {
              "system": "http://loinc.org",
              "code": "18748-4",
              "display": "Diagnostic imaging study"
            }
          ]
        },
        "subject": {
          "reference": "Patient/07b4bb18-ad05-447e-b610-bdcf8e98d69f",
          "display": "Aisha Garcia"
        },
        "effectiveDateTime": "2021-05-15",
        "performer": [
          {
            "reference": "Practitioner/f1ddd97a-5867-4c8a-9c77-afb927454b7f",
            "display": "Dr. Sarah Johnson"
          }
        ],
        "conclusion": "Patient shows improving status for atrial fibrillation. Aisha Garcia, a Hispanic female patient diagnosed with moderate atrial fibrillation, underwent a cardioversion procedure followed by medication adjustment. She showed improvement during follow-up visits with appropriate medication management."
      },
      "request": {
        "method": "POST",
        "url": "DiagnosticReport"
      }
    },
    {
      "resource": {
        "resourceType": "Observation",
        "status": "final",
        "category": [
          {
            "coding": [
              {
                "system": "http://terminology.hl7.org/CodeSystem/observation-category",
                "code": "clinical",
                "display": "Clinical"
              }
            ]
          }
        ],
        "code": {
          "coding": [
            {
              "system": "http://loinc.org",
              "code": "11323-3",
              "display": "Health status"
            }
          ]
        },
        "subject": {
          "reference": "Patient/07b4bb18-ad05-447e-b610-bdcf8e98d69f",
          "display": "Aisha Garcia"
        },
        "valueString": "improving",
        "effectiveDateTime": "2021-05-15"
      },
      "request": {
        "method": "POST",
        "url": "Observation"
      }
    }
  ]
}