{
  "resourceType": "Bundle",
  "id": "107b8e15-b119-4da8-b9ad-31085eef314b",
  "type": "transaction",
  "entry": [
    {
      "resource": {
        "resourceType": "Patient",
        "id": "061779fa-c2b8-4eb2-b0b6-c05c869144a2",
        "name": [
          {
            "use": "official",
            "family": "Chen",
            "given": [
              "Sakura"
            ]
          }
        ],
        "gender": "female",
        "birthDate": "1975-06-12",
        "address": [
          {
            "use": "home",
            "line": [
              "123 Cherry Blossom Ln"
            ],
            "city": "San Francisco",
            "state": "CA",
            "postalCode": "94105",
            "country": "USA"
          }
        ],
        "telecom": [
          {
            "system": "phone",
            "value": "(415) 555-1234",
            "use": "home"
          },
          {
            "system": "email",
            "value": "sakura.chen@example.com",
            "use": "home"
          }
        ],
        "extension": [
          {
            "url": "http://hl7.org/fhir/us/core/StructureDefinition/us-core-ethnicity",
            "valueString": "Asian"
          }
        ]
      },
      "request": {
        "method": "PUT",
        "url": "Patient/061779fa-c2b8-4eb2-b0b6-c05c869144a2"
      }
    },
    {
      "resource": {
        "resourceType": "Practitioner",
        "id": "a17627fb-79b2-42ab-8148-80b682632b51",
        "name": [
          {
            "use": "official",
            "family": "Johnson",
            "given": [
              "Dr. Sarah"
            ],
            "prefix": [
              "Dr."
            ]
          }
        ],
        "qualification": [
          {
            "code": {
              "coding": [
                {
                  "system": "http://terminology.hl7.org/CodeSystem/v2-0360",
                  "code": "MD",
                  "display": "Doctor of Medicine"
                }
              ]
            }
          }
        ]
      },
      "request": {
        "method": "PUT",
        "url": "Practitioner/a17627fb-79b2-42ab-8148-80b682632b51"
      }
    },
    {
      "resource": {
        "resourceType": "Organization",
        "id": "830276dd-de46-47b3-bb9a-604d3f774c49",
        "name": "Comprehensive Cancer Center",
        "type": [
          {
            "coding": [
              {
                "system": "http://terminology.hl7.org/CodeSystem/organization-type",
                "code": "prov",
                "display": "Healthcare Provider"
              }
            ]
          }
        ]
      },
      "request": {
        "method": "PUT",
        "url": "Organization/830276dd-de46-47b3-bb9a-604d3f774c49"
      }
    },
    {
      "resource": {
        "resourceType": "Condition",
        "id": "9443a659-c2d3-4382-9a82-fb151e00b445",
        "clinicalStatus": {
          "coding": [
            {
              "system": "http://terminology.hl7.org/CodeSystem/condition-clinical",
              "code": "active",
              "display": "Active"
            }
          ]
        },
        "verificationStatus": {
          "coding": [
            {
              "system": "http://terminology.hl7.org/CodeSystem/condition-ver-status",
              "code": "confirmed",
              "display": "Confirmed"
            }
          ]
        },
        "code": {
          "coding": [
            {
              "system": "http://snomed.info/sct",
              "code": "63634009",
              "display": "glioblastoma multiforme"
            }
          ],
          "text": "glioblastoma multiforme"
        },
        "subject": {
          "reference": "Patient/061779fa-c2b8-4eb2-b0b6-c05c869144a2",
          "display": "Sakura Chen"
        },
        "onsetDateTime": "2021-03-15",
        "recordedDate": "2021-04-02",
        "stage": [
          {
            "summary": {
              "coding": [
                {
                  "system": "http://snomed.info/sct",
                  "code": "261663004",
                  "display": "Stage IV"
                }
              ]
            }
          }
        ]
      },
      "request": {
        "method": "PUT",
        "url": "Condition/9443a659-c2d3-4382-9a82-fb151e00b445"
      }
    },
    {
      "resource": {
        "resourceType": "CarePlan",
        "id": "ed1c866c-194f-4ccc-9743-0bf75ff6c225",
        "status": "active",
        "intent": "plan",
        "title": "Treatment plan for glioblastoma multiforme",
        "description": "Comprehensive treatment plan including Surgery, Chemotherapy, Radiation Therapy",
        "subject": {
          "reference": "Patient/061779fa-c2b8-4eb2-b0b6-c05c869144a2",
          "display": "Sakura Chen"
        },
        "period": {
          "start": "2021-04-10"
        },
        "addresses": [
          {
            "reference": "Condition/9443a659-c2d3-4382-9a82-fb151e00b445",
            "display": "glioblastoma multiforme"
          }
        ],
        "author": [
          {
            "reference": "Practitioner/a17627fb-79b2-42ab-8148-80b682632b51",
            "display": "Dr. Sarah Johnson"
          }
        ]
      },
      "request": {
        "method": "PUT",
        "url": "CarePlan/ed1c866c-194f-4ccc-9743-0bf75ff6c225"
      }
    },
    {
      "resource": {
        "resourceType": "Encounter",
        "id": "149ffb61-9e19-40b8-993d-052246c1383b",
        "status": "finished",
        "class": {
          "system": "http://terminology.hl7.org/CodeSystem/v3-ActCode",
          "code": "IMP",
          "display": "Inpatient"
        },
        "type": [
          {
            "coding": [
              {
                "system": "http://snomed.info/sct",
                "code": "308646001",
                "display": "Surgical resection of tumor"
              }
            ],
            "text": "Surgical resection of tumor"
          }
        ],
        "subject": {
          "reference": "Patient/061779fa-c2b8-4eb2-b0b6-c05c869144a2",
          "display": "Sakura Chen"
        },
        "participant": [
          {
            "individual": {
              "reference": "Practitioner/a17627fb-79b2-42ab-8148-80b682632b51",
              "display": "Dr. Sarah Johnson"
            }
          }
        ],
        "period": {
          "start": "2021-04-10"
        },
        "serviceProvider": {
          "reference": "Organization/830276dd-de46-47b3-bb9a-604d3f774c49",
          "display": "Comprehensive Cancer Center"
        },
        "reasonReference": [
          {
            "reference": "Condition/9443a659-c2d3-4382-9a82-fb151e00b445",
            "display": "glioblastoma multiforme"
          }
        ]
      },
      "request": {
        "method": "PUT",
        "url": "Encounter/149ffb61-9e19-40b8-993d-052246c1383b"
      }
    },
    {
      "resource": {
        "resourceType": "Procedure",
        "id": "e0bf4a52-c4e3-4099-8f6e-e17b73653ab3",
        "status": "completed",
        "code": {
          "coding": [
            {
              "system": "http://snomed.info/sct",
              "code": "387713003",
              "display": "Tumor resection surgery"
            }
          ],
          "text": "Tumor resection surgery"
        },
        "subject": {
          "reference": "Patient/061779fa-c2b8-4eb2-b0b6-c05c869144a2",
          "display": "Sakura Chen"
        },
        "encounter": {
          "reference": "Encounter/149ffb61-9e19-40b8-993d-052246c1383b"
        },
        "performedDateTime": "2021-04-10",
        "performer": [
          {
            "actor": {
              "reference": "Practitioner/a17627fb-79b2-42ab-8148-80b682632b51",
              "display": "Dr. Sarah Johnson"
            }
          }
        ],
        "reasonReference": [
          {
            "reference": "Condition/9443a659-c2d3-4382-9a82-fb151e00b445",
            "display": "glioblastoma multiforme"
          }
        ]
      },
      "request": {
        "method": "PUT",
        "url": "Procedure/e0bf4a52-c4e3-4099-8f6e-e17b73653ab3"
      }
    },
    {
      "resource": {
        "resourceType": "Procedure",
        "id": "c7ea5606-a855-4884-bf0d-9fb4c77bc2a1",
        "status": "completed",
        "code": {
          "coding": [
            {
              "system": "http://snomed.info/sct",
              "code": "387713003",
              "display": "Biopsy"
            }
          ],
          "text": "Biopsy"
        },
        "subject": {
          "reference": "Patient/061779fa-c2b8-4eb2-b0b6-c05c869144a2",
          "display": "Sakura Chen"
        },
        "encounter": {
          "reference": "Encounter/149ffb61-9e19-40b8-993d-052246c1383b"
        },
        "performedDateTime": "2021-04-10",
        "performer": [
          {
            "actor": {
              "reference": "Practitioner/a17627fb-79b2-42ab-8148-80b682632b51",
              "display": "Dr. Sarah Johnson"
            }
          }
        ],
        "reasonReference": [
          {
            "reference": "Condition/9443a659-c2d3-4382-9a82-fb151e00b445",
            "display": "glioblastoma multiforme"
          }
        ]
      },
      "request": {
        "method": "PUT",
        "url": "Procedure/c7ea5606-a855-4884-bf0d-9fb4c77bc2a1"
      }
    },
    {
      "resource": {
        "resourceType": "MedicationAdministration",
        "id": "e108739f-5550-4ea3-889f-e43764181791",
        "status": "completed",
        "medicationCodeableConcept": {
          "coding": [
            {
              "system": "http://www.nlm.nih.gov/research/umls/rxnorm",
              "code": "123456",
              "display": "Anesthesia"
            }
          ],
          "text": "Anesthesia"
        },
        "subject": {
          "reference": "Patient/061779fa-c2b8-4eb2-b0b6-c05c869144a2",
          "display": "Sakura Chen"
        },
        "context": {
          "reference": "Encounter/149ffb61-9e19-40b8-993d-052246c1383b"
        },
        "effectiveDateTime": "2021-04-10",
        "performer": [
          {
            "actor": {
              "reference": "Practitioner/a17627fb-79b2-42ab-8148-80b682632b51",
              "display": "Dr. Sarah Johnson"
            }
          }
        ],
        "reasonReference": [
          {
            "reference": "Condition/9443a659-c2d3-4382-9a82-fb151e00b445",
            "display": "glioblastoma multiforme"
          }
        ],
        "dosage": {
          "text": "As prescribed per protocol",
          "route": {
            "coding": [
              {
                "system": "http://snomed.info/sct",
                "code": "47625008",
                "display": "Intravenous route"
              }
            ]
          },
          "dose": {
            "value": 1,
            "unit": "dose",
            "system": "http://unitsofmeasure.org",
            "code": "1"
          }
        }
      },
      "request": {
        "method": "PUT",
        "url": "MedicationAdministration/e108739f-5550-4ea3-889f-e43764181791"
      }
    },
    {
      "resource": {
        "resourceType": "MedicationAdministration",
        "id": "1dba26b8-3940-4c12-9a13-fa2ade57c9db",
        "status": "completed",
        "medicationCodeableConcept": {
          "coding": [
            {
              "system": "http://www.nlm.nih.gov/research/umls/rxnorm",
              "code": "123456",
              "display": "Antibiotics"
            }
          ],
          "text": "Antibiotics"
        },
        "subject": {
          "reference": "Patient/061779fa-c2b8-4eb2-b0b6-c05c869144a2",
          "display": "Sakura Chen"
        },
        "context": {
          "reference": "Encounter/149ffb61-9e19-40b8-993d-052246c1383b"
        },
        "effectiveDateTime": "2021-04-10",
        "performer": [
          {
            "actor": {
              "reference": "Practitioner/a17627fb-79b2-42ab-8148-80b682632b51",
              "display": "Dr. Sarah Johnson"
            }
          }
        ],
        "reasonReference": [
          {
            "reference": "Condition/9443a659-c2d3-4382-9a82-fb151e00b445",
            "display": "glioblastoma multiforme"
          }
        ],
        "dosage": {
          "text": "As prescribed per protocol",
          "route": {
            "coding": [
              {
                "system": "http://snomed.info/sct",
                "code": "47625008",
                "display": "Intravenous route"
              }
            ]
          },
          "dose": {
            "value": 1,
            "unit": "dose",
            "system": "http://unitsofmeasure.org",
            "code": "1"
          }
        }
      },
      "request": {
        "method": "PUT",
        "url": "MedicationAdministration/1dba26b8-3940-4c12-9a13-fa2ade57c9db"
      }
    },
    {
      "resource": {
        "resourceType": "Encounter",
        "id": "eef882ff-78e2-4330-91d6-0c695625c6f7",
        "status": "finished",
        "class": {
          "system": "http://terminology.hl7.org/CodeSystem/v3-ActCode",
          "code": "IMP",
          "display": "Inpatient"
        },
        "type": [
          {
            "coding": [
              {
                "system": "http://snomed.info/sct",
                "code": "308646001",
                "display": "Postoperative care"
              }
            ],
            "text": "Postoperative care"
          }
        ],
        "subject": {
          "reference": "Patient/061779fa-c2b8-4eb2-b0b6-c05c869144a2",
          "display": "Sakura Chen"
        },
        "participant": [
          {
            "individual": {
              "reference": "Practitioner/a17627fb-79b2-42ab-8148-80b682632b51",
              "display": "Dr. Sarah Johnson"
            }
          }
        ],
        "period": {
          "start": "2021-04-15"
        },
        "serviceProvider": {
          "reference": "Organization/830276dd-de46-47b3-bb9a-604d3f774c49",
          "display": "Comprehensive Cancer Center"
        },
        "reasonReference": [
          {
            "reference": "Condition/9443a659-c2d3-4382-9a82-fb151e00b445",
            "display": "glioblastoma multiforme"
          }
        ]
      },
      "request": {
        "method": "PUT",
        "url": "Encounter/eef882ff-78e2-4330-91d6-0c695625c6f7"
      }
    },
    {
      "resource": {
        "resourceType": "Procedure",
        "id": "f8ffddf5-852a-4832-9ecc-8dd761ad4fd0",
        "status": "completed",
        "code": {
          "coding": [
            {
              "system": "http://snomed.info/sct",
              "code": "387713003",
              "display": "Wound care"
            }
          ],
          "text": "Wound care"
        },
        "subject": {
          "reference": "Patient/061779fa-c2b8-4eb2-b0b6-c05c869144a2",
          "display": "Sakura Chen"
        },
        "encounter": {
          "reference": "Encounter/eef882ff-78e2-4330-91d6-0c695625c6f7"
        },
        "performedDateTime": "2021-04-15",
        "performer": [
          {
            "actor": {
              "reference": "Practitioner/a17627fb-79b2-42ab-8148-80b682632b51",
              "display": "Dr. Sarah Johnson"
            }
          }
        ],
        "reasonReference": [
          {
            "reference": "Condition/9443a659-c2d3-4382-9a82-fb151e00b445",
            "display": "glioblastoma multiforme"
          }
        ]
      },
      "request": {
        "method": "PUT",
        "url": "Procedure/f8ffddf5-852a-4832-9ecc-8dd761ad4fd0"
      }
    },
    {
      "resource": {
        "resourceType": "MedicationAdministration",
        "id": "fcb86518-1e11-4a05-8bbf-ac6dff4638db",
        "status": "completed",
        "medicationCodeableConcept": {
          "coding": [
            {
              "system": "http://www.nlm.nih.gov/research/umls/rxnorm",
              "code": "123456",
              "display": "Pain relievers"
            }
          ],
          "text": "Pain relievers"
        },
        "subject": {
          "reference": "Patient/061779fa-c2b8-4eb2-b0b6-c05c869144a2",
          "display": "Sakura Chen"
        },
        "context": {
          "reference": "Encounter/eef882ff-78e2-4330-91d6-0c695625c6f7"
        },
        "effectiveDateTime": "2021-04-15",
        "performer": [
          {
            "actor": {
              "reference": "Practitioner/a17627fb-79b2-42ab-8148-80b682632b51",
              "display": "Dr. Sarah Johnson"
            }
          }
        ],
        "reasonReference": [
          {
            "reference": "Condition/9443a659-c2d3-4382-9a82-fb151e00b445",
            "display": "glioblastoma multiforme"
          }
        ],
        "dosage": {
          "text": "As prescribed per protocol",
          "route": {
            "coding": [
              {
                "system": "http://snomed.info/sct",
                "code": "47625008",
                "display": "Intravenous route"
              }
            ]
          },
          "dose": {
            "value": 1,
            "unit": "dose",
            "system": "http://unitsofmeasure.org",
            "code": "1"
          }
        }
      },
      "request": {
        "method": "PUT",
        "url": "MedicationAdministration/fcb86518-1e11-4a05-8bbf-ac6dff4638db"
      }
    },
    {
      "resource": {
        "resourceType": "MedicationAdministration",
        "id": "b7b7d97a-9390-483f-bfe6-38341d39696a",
        "status": "completed",
        "medicationCodeableConcept": {
          "coding": [
            {
              "system": "http://www.nlm.nih.gov/research/umls/rxnorm",
              "code": "123456",
              "display": "Anticoagulants"
            }
          ],
          "text": "Anticoagulants"
        },
        "subject": {
          "reference": "Patient/061779fa-c2b8-4eb2-b0b6-c05c869144a2",
          "display": "Sakura Chen"
        },
        "context": {
          "reference": "Encounter/eef882ff-78e2-4330-91d6-0c695625c6f7"
        },
        "effectiveDateTime": "2021-04-15",
        "performer": [
          {
            "actor": {
              "reference": "Practitioner/a17627fb-79b2-42ab-8148-80b682632b51",
              "display": "Dr. Sarah Johnson"
            }
          }
        ],
        "reasonReference": [
          {
            "reference": "Condition/9443a659-c2d3-4382-9a82-fb151e00b445",
            "display": "glioblastoma multiforme"
          }
        ],
        "dosage": {
          "text": "As prescribed per protocol",
          "route": {
            "coding": [
              {
                "system": "http://snomed.info/sct",
                "code": "47625008",
                "display": "Intravenous route"
              }
            ]
          },
          "dose": {
            "value": 1,
            "unit": "dose",
            "system": "http://unitsofmeasure.org",
            "code": "1"
          }
        }
      },
      "request": {
        "method": "PUT",
        "url": "MedicationAdministration/b7b7d97a-9390-483f-bfe6-38341d39696a"
      }
    },
    {
      "resource": {
        "resourceType": "Encounter",
        "id": "e576bd0f-6069-49ea-a8fe-331f6c19c5ac",
        "status": "finished",
        "class": {
          "system": "http://terminology.hl7.org/CodeSystem/v3-ActCode",
          "code": "AMB",
          "display": "Ambulatory"
        },
        "type": [
          {
            "coding": [
              {
                "system": "http://snomed.info/sct",
                "code": "308646001",
                "display": "Follow-up post-surgery"
              }
            ],
            "text": "Follow-up post-surgery"
          }
        ],
        "subject": {
          "reference": "Patient/061779fa-c2b8-4eb2-b0b6-c05c869144a2",
          "display": "Sakura Chen"
        },
        "participant": [
          {
            "individual": {
              "reference": "Practitioner/a17627fb-79b2-42ab-8148-80b682632b51",
              "display": "Dr. Sarah Johnson"
            }
          }
        ],
        "period": {
          "start": "2021-04-18"
        },
        "serviceProvider": {
          "reference": "Organization/830276dd-de46-47b3-bb9a-604d3f774c49",
          "display": "Comprehensive Cancer Center"
        },
        "reasonReference": [
          {
            "reference": "Condition/9443a659-c2d3-4382-9a82-fb151e00b445",
            "display": "glioblastoma multiforme"
          }
        ]
      },
      "request": {
        "method": "PUT",
        "url": "Encounter/e576bd0f-6069-49ea-a8fe-331f6c19c5ac"
      }
    },
    {
      "resource": {
        "resourceType": "Procedure",
        "id": "8be3a0f5-0028-475f-a04c-37ead1083f09",
        "status": "completed",
        "code": {
          "coding": [
            {
              "system": "http://snomed.info/sct",
              "code": "387713003",
              "display": "Suture removal"
            }
          ],
          "text": "Suture removal"
        },
        "subject": {
          "reference": "Patient/061779fa-c2b8-4eb2-b0b6-c05c869144a2",
          "display": "Sakura Chen"
        },
        "encounter": {
          "reference": "Encounter/e576bd0f-6069-49ea-a8fe-331f6c19c5ac"
        },
        "performedDateTime": "2021-04-18",
        "performer": [
          {
            "actor": {
              "reference": "Practitioner/a17627fb-79b2-42ab-8148-80b682632b51",
              "display": "Dr. Sarah Johnson"
            }
          }
        ],
        "reasonReference": [
          {
            "reference": "Condition/9443a659-c2d3-4382-9a82-fb151e00b445",
            "display": "glioblastoma multiforme"
          }
        ]
      },
      "request": {
        "method": "PUT",
        "url": "Procedure/8be3a0f5-0028-475f-a04c-37ead1083f09"
      }
    },
    {
      "resource": {
        "resourceType": "MedicationAdministration",
        "id": "369254c0-41d8-45dc-8571-9ce035fe837b",
        "status": "completed",
        "medicationCodeableConcept": {
          "coding": [
            {
              "system": "http://www.nlm.nih.gov/research/umls/rxnorm",
              "code": "123456",
              "display": "Antibiotics"
            }
          ],
          "text": "Antibiotics"
        },
        "subject": {
          "reference": "Patient/061779fa-c2b8-4eb2-b0b6-c05c869144a2",
          "display": "Sakura Chen"
        },
        "context": {
          "reference": "Encounter/e576bd0f-6069-49ea-a8fe-331f6c19c5ac"
        },
        "effectiveDateTime": "2021-04-18",
        "performer": [
          {
            "actor": {
              "reference": "Practitioner/a17627fb-79b2-42ab-8148-80b682632b51",
              "display": "Dr. Sarah Johnson"
            }
          }
        ],
        "reasonReference": [
          {
            "reference": "Condition/9443a659-c2d3-4382-9a82-fb151e00b445",
            "display": "glioblastoma multiforme"
          }
        ],
        "dosage": {
          "text": "As prescribed per protocol",
          "route": {
            "coding": [
              {
                "system": "http://snomed.info/sct",
                "code": "47625008",
                "display": "Intravenous route"
              }
            ]
          },
          "dose": {
            "value": 1,
            "unit": "dose",
            "system": "http://unitsofmeasure.org",
            "code": "1"
          }
        }
      },
      "request": {
        "method": "PUT",
        "url": "MedicationAdministration/369254c0-41d8-45dc-8571-9ce035fe837b"
      }
    },
    {
      "resource": {
        "resourceType": "Encounter",
        "id": "c7271114-e7dc-474c-b99a-4b0396e7d7e9",
        "status": "finished",
        "class": {
          "system": "http://terminology.hl7.org/CodeSystem/v3-ActCode",
          "code": "AMB",
          "display": "Ambulatory"
        },
        "type": [
          {
            "coding": [
              {
                "system": "http://snomed.info/sct",
                "code": "308646001",
                "display": "Oncology consultation"
              }
            ],
            "text": "Oncology consultation"
          }
        ],
        "subject": {
          "reference": "Patient/061779fa-c2b8-4eb2-b0b6-c05c869144a2",
          "display": "Sakura Chen"
        },
        "participant": [
          {
            "individual": {
              "reference": "Practitioner/a17627fb-79b2-42ab-8148-80b682632b51",
              "display": "Dr. Sarah Johnson"
            }
          }
        ],
        "period": {
          "start": "2021-04-25"
        },
        "serviceProvider": {
          "reference": "Organization/830276dd-de46-47b3-bb9a-604d3f774c49",
          "display": "Comprehensive Cancer Center"
        },
        "reasonReference": [
          {
            "reference": "Condition/9443a659-c2d3-4382-9a82-fb151e00b445",
            "display": "glioblastoma multiforme"
          }
        ]
      },
      "request": {
        "method": "PUT",
        "url": "Encounter/c7271114-e7dc-474c-b99a-4b0396e7d7e9"
      }
    },
    {
      "resource": {
        "resourceType": "Procedure",
        "id": "8ba4e36e-20be-4786-a47d-47c36a4f12c8",
        "status": "completed",
        "code": {
          "coding": [
            {
              "system": "http://snomed.info/sct",
              "code": "387713003",
              "display": "Imaging scans"
            }
          ],
          "text": "Imaging scans"
        },
        "subject": {
          "reference": "Patient/061779fa-c2b8-4eb2-b0b6-c05c869144a2",
          "display": "Sakura Chen"
        },
        "encounter": {
          "reference": "Encounter/c7271114-e7dc-474c-b99a-4b0396e7d7e9"
        },
        "performedDateTime": "2021-04-25",
        "performer": [
          {
            "actor": {
              "reference": "Practitioner/a17627fb-79b2-42ab-8148-80b682632b51",
              "display": "Dr. Sarah Johnson"
            }
          }
        ],
        "reasonReference": [
          {
            "reference": "Condition/9443a659-c2d3-4382-9a82-fb151e00b445",
            "display": "glioblastoma multiforme"
          }
        ]
      },
      "request": {
        "method": "PUT",
        "url": "Procedure/8ba4e36e-20be-4786-a47d-47c36a4f12c8"
      }
    },
    {
      "resource": {
        "resourceType": "MedicationAdministration",
        "id": "f7b9cd45-1949-4baa-a734-c301ccb50d03",
        "status": "completed",
        "medicationCodeableConcept": {
          "coding": [
            {
              "system": "http://www.nlm.nih.gov/research/umls/rxnorm",
              "code": "123456",
              "display": "Pain management drugs"
            }
          ],
          "text": "Pain management drugs"
        },
        "subject": {
          "reference": "Patient/061779fa-c2b8-4eb2-b0b6-c05c869144a2",
          "display": "Sakura Chen"
        },
        "context": {
          "reference": "Encounter/c7271114-e7dc-474c-b99a-4b0396e7d7e9"
        },
        "effectiveDateTime": "2021-04-25",
        "performer": [
          {
            "actor": {
              "reference": "Practitioner/a17627fb-79b2-42ab-8148-80b682632b51",
              "display": "Dr. Sarah Johnson"
            }
          }
        ],
        "reasonReference": [
          {
            "reference": "Condition/9443a659-c2d3-4382-9a82-fb151e00b445",
            "display": "glioblastoma multiforme"
          }
        ],
        "dosage": {
          "text": "As prescribed per protocol",
          "route": {
            "coding": [
              {
                "system": "http://snomed.info/sct",
                "code": "47625008",
                "display": "Intravenous route"
              }
            ]
          },
          "dose": {
            "value": 1,
            "unit": "dose",
            "system": "http://unitsofmeasure.org",
            "code": "1"
          }
        }
      },
      "request": {
        "method": "PUT",
        "url": "MedicationAdministration/f7b9cd45-1949-4baa-a734-c301ccb50d03"
      }
    },
    {
      "resource": {
        "resourceType": "Encounter",
        "id": "005df29b-3dc6-4d0a-bea5-fa0f866c9ee1",
        "status": "finished",
        "class": {
          "system": "http://terminology.hl7.org/CodeSystem/v3-ActCode",
          "code": "IMP",
          "display": "Inpatient"
        },
        "type": [
          {
            "coding": [
              {
                "system": "http://snomed.info/sct",
                "code": "308646001",
                "display": "Chemotherapy Cycle 1"
              }
            ],
            "text": "Chemotherapy Cycle 1"
          }
        ],
        "subject": {
          "reference": "Patient/061779fa-c2b8-4eb2-b0b6-c05c869144a2",
          "display": "Sakura Chen"
        },
        "participant": [
          {
            "individual": {
              "reference": "Practitioner/a17627fb-79b2-42ab-8148-80b682632b51",
              "display": "Dr. Sarah Johnson"
            }
          }
        ],
        "period": {
          "start": "2021-05-01"
        },
        "serviceProvider": {
          "reference": "Organization/830276dd-de46-47b3-bb9a-604d3f774c49",
          "display": "Comprehensive Cancer Center"
        },
        "reasonReference": [
          {
            "reference": "Condition/9443a659-c2d3-4382-9a82-fb151e00b445",
            "display": "glioblastoma multiforme"
          }
        ]
      },
      "request": {
        "method": "PUT",
        "url": "Encounter/005df29b-3dc6-4d0a-bea5-fa0f866c9ee1"
      }
    },
    {
      "resource": {
        "resourceType": "Procedure",
        "id": "3e60c649-0d7a-4195-8408-41898ed70234",
        "status": "completed",
        "code": {
          "coding": [
            {
              "system": "http://snomed.info/sct",
              "code": "387713003",
              "display": "Chemotherapy infusion"
            }
          ],
          "text": "Chemotherapy infusion"
        },
        "subject": {
          "reference": "Patient/061779fa-c2b8-4eb2-b0b6-c05c869144a2",
          "display": "Sakura Chen"
        },
        "encounter": {
          "reference": "Encounter/005df29b-3dc6-4d0a-bea5-fa0f866c9ee1"
        },
        "performedDateTime": "2021-05-01",
        "performer": [
          {
            "actor": {
              "reference": "Practitioner/a17627fb-79b2-42ab-8148-80b682632b51",
              "display": "Dr. Sarah Johnson"
            }
          }
        ],
        "reasonReference": [
          {
            "reference": "Condition/9443a659-c2d3-4382-9a82-fb151e00b445",
            "display": "glioblastoma multiforme"
          }
        ]
      },
      "request": {
        "method": "PUT",
        "url": "Procedure/3e60c649-0d7a-4195-8408-41898ed70234"
      }
    },
    {
      "resource": {
        "resourceType": "MedicationAdministration",
        "id": "0967ee90-09e8-4c75-8002-cca2975d76c4",
        "status": "completed",
        "medicationCodeableConcept": {
          "coding": [
            {
              "system": "http://www.nlm.nih.gov/research/umls/rxnorm",
              "code": "123456",
              "display": "Chemotherapy drugs"
            }
          ],
          "text": "Chemotherapy drugs"
        },
        "subject": {
          "reference": "Patient/061779fa-c2b8-4eb2-b0b6-c05c869144a2",
          "display": "Sakura Chen"
        },
        "context": {
          "reference": "Encounter/005df29b-3dc6-4d0a-bea5-fa0f866c9ee1"
        },
        "effectiveDateTime": "2021-05-01",
        "performer": [
          {
            "actor": {
              "reference": "Practitioner/a17627fb-79b2-42ab-8148-80b682632b51",
              "display": "Dr. Sarah Johnson"
            }
          }
        ],
        "reasonReference": [
          {
            "reference": "Condition/9443a659-c2d3-4382-9a82-fb151e00b445",
            "display": "glioblastoma multiforme"
          }
        ],
        "dosage": {
          "text": "As prescribed per protocol",
          "route": {
            "coding": [
              {
                "system": "http://snomed.info/sct",
                "code": "47625008",
                "display": "Intravenous route"
              }
            ]
          },
          "dose": {
            "value": 1,
            "unit": "dose",
            "system": "http://unitsofmeasure.org",
            "code": "1"
          }
        }
      },
      "request": {
        "method": "PUT",
        "url": "MedicationAdministration/0967ee90-09e8-4c75-8002-cca2975d76c4"
      }
    },
    {
      "resource": {
        "resourceType": "MedicationAdministration",
        "id": "e2799633-bae3-4b0b-a237-f4185abedd13",
        "status": "completed",
        "medicationCodeableConcept": {
          "coding": [
            {
              "system": "http://www.nlm.nih.gov/research/umls/rxnorm",
              "code": "123456",
              "display": "Anti-nausea medication"
            }
          ],
          "text": "Anti-nausea medication"
        },
        "subject": {
          "reference": "Patient/061779fa-c2b8-4eb2-b0b6-c05c869144a2",
          "display": "Sakura Chen"
        },
        "context": {
          "reference": "Encounter/005df29b-3dc6-4d0a-bea5-fa0f866c9ee1"
        },
        "effectiveDateTime": "2021-05-01",
        "performer": [
          {
            "actor": {
              "reference": "Practitioner/a17627fb-79b2-42ab-8148-80b682632b51",
              "display": "Dr. Sarah Johnson"
            }
          }
        ],
        "reasonReference": [
          {
            "reference": "Condition/9443a659-c2d3-4382-9a82-fb151e00b445",
            "display": "glioblastoma multiforme"
          }
        ],
        "dosage": {
          "text": "As prescribed per protocol",
          "route": {
            "coding": [
              {
                "system": "http://snomed.info/sct",
                "code": "47625008",
                "display": "Intravenous route"
              }
            ]
          },
          "dose": {
            "value": 1,
            "unit": "dose",
            "system": "http://unitsofmeasure.org",
            "code": "1"
          }
        }
      },
      "request": {
        "method": "PUT",
        "url": "MedicationAdministration/e2799633-bae3-4b0b-a237-f4185abedd13"
      }
    },
    {
      "resource": {
        "resourceType": "Encounter",
        "id": "806962f6-86d1-4462-ac75-302e01d878ad",
        "status": "finished",
        "class": {
          "system": "http://terminology.hl7.org/CodeSystem/v3-ActCode",
          "code": "AMB",
          "display": "Ambulatory"
        },
        "type": [
          {
            "coding": [
              {
                "system": "http://snomed.info/sct",
                "code": "308646001",
                "display": "Chemotherapy Cycle 2"
              }
            ],
            "text": "Chemotherapy Cycle 2"
          }
        ],
        "subject": {
          "reference": "Patient/061779fa-c2b8-4eb2-b0b6-c05c869144a2",
          "display": "Sakura Chen"
        },
        "participant": [
          {
            "individual": {
              "reference": "Practitioner/a17627fb-79b2-42ab-8148-80b682632b51",
              "display": "Dr. Sarah Johnson"
            }
          }
        ],
        "period": {
          "start": "2021-05-15"
        },
        "serviceProvider": {
          "reference": "Organization/830276dd-de46-47b3-bb9a-604d3f774c49",
          "display": "Comprehensive Cancer Center"
        },
        "reasonReference": [
          {
            "reference": "Condition/9443a659-c2d3-4382-9a82-fb151e00b445",
            "display": "glioblastoma multiforme"
          }
        ]
      },
      "request": {
        "method": "PUT",
        "url": "Encounter/806962f6-86d1-4462-ac75-302e01d878ad"
      }
    },
    {
      "resource": {
        "resourceType": "Procedure",
        "id": "a6966354-c4b5-4259-b68c-a1a8a635f4d2",
        "status": "completed",
        "code": {
          "coding": [
            {
              "system": "http://snomed.info/sct",
              "code": "387713003",
              "display": "Chemotherapy infusion"
            }
          ],
          "text": "Chemotherapy infusion"
        },
        "subject": {
          "reference": "Patient/061779fa-c2b8-4eb2-b0b6-c05c869144a2",
          "display": "Sakura Chen"
        },
        "encounter": {
          "reference": "Encounter/806962f6-86d1-4462-ac75-302e01d878ad"
        },
        "performedDateTime": "2021-05-15",
        "performer": [
          {
            "actor": {
              "reference": "Practitioner/a17627fb-79b2-42ab-8148-80b682632b51",
              "display": "Dr. Sarah Johnson"
            }
          }
        ],
        "reasonReference": [
          {
            "reference": "Condition/9443a659-c2d3-4382-9a82-fb151e00b445",
            "display": "glioblastoma multiforme"
          }
        ]
      },
      "request": {
        "method": "PUT",
        "url": "Procedure/a6966354-c4b5-4259-b68c-a1a8a635f4d2"
      }
    },
    {
      "resource": {
        "resourceType": "MedicationAdministration",
        "id": "2aada841-950e-412c-af4e-ed82ee7e9c37",
        "status": "completed",
        "medicationCodeableConcept": {
          "coding": [
            {
              "system": "http://www.nlm.nih.gov/research/umls/rxnorm",
              "code": "123456",
              "display": "Chemotherapy drugs"
            }
          ],
          "text": "Chemotherapy drugs"
        },
        "subject": {
          "reference": "Patient/061779fa-c2b8-4eb2-b0b6-c05c869144a2",
          "display": "Sakura Chen"
        },
        "context": {
          "reference": "Encounter/806962f6-86d1-4462-ac75-302e01d878ad"
        },
        "effectiveDateTime": "2021-05-15",
        "performer": [
          {
            "actor": {
              "reference": "Practitioner/a17627fb-79b2-42ab-8148-80b682632b51",
              "display": "Dr. Sarah Johnson"
            }
          }
        ],
        "reasonReference": [
          {
            "reference": "Condition/9443a659-c2d3-4382-9a82-fb151e00b445",
            "display": "glioblastoma multiforme"
          }
        ],
        "dosage": {
          "text": "As prescribed per protocol",
          "route": {
            "coding": [
              {
                "system": "http://snomed.info/sct",
                "code": "47625008",
                "display": "Intravenous route"
              }
            ]
          },
          "dose": {
            "value": 1,
            "unit": "dose",
            "system": "http://unitsofmeasure.org",
            "code": "1"
          }
        }
      },
      "request": {
        "method": "PUT",
        "url": "MedicationAdministration/2aada841-950e-412c-af4e-ed82ee7e9c37"
      }
    },
    {
      "resource": {
        "resourceType": "MedicationAdministration",
        "id": "5d4a42d3-4dac-42bb-8581-f6f9b83119a9",
        "status": "completed",
        "medicationCodeableConcept": {
          "coding": [
            {
              "system": "http://www.nlm.nih.gov/research/umls/rxnorm",
              "code": "123456",
              "display": "Anti-nausea medication"
            }
          ],
          "text": "Anti-nausea medication"
        },
        "subject": {
          "reference": "Patient/061779fa-c2b8-4eb2-b0b6-c05c869144a2",
          "display": "Sakura Chen"
        },
        "context": {
          "reference": "Encounter/806962f6-86d1-4462-ac75-302e01d878ad"
        },
        "effectiveDateTime": "2021-05-15",
        "performer": [
          {
            "actor": {
              "reference": "Practitioner/a17627fb-79b2-42ab-8148-80b682632b51",
              "display": "Dr. Sarah Johnson"
            }
          }
        ],
        "reasonReference": [
          {
            "reference": "Condition/9443a659-c2d3-4382-9a82-fb151e00b445",
            "display": "glioblastoma multiforme"
          }
        ],
        "dosage": {
          "text": "As prescribed per protocol",
          "route": {
            "coding": [
              {
                "system": "http://snomed.info/sct",
                "code": "47625008",
                "display": "Intravenous route"
              }
            ]
          },
          "dose": {
            "value": 1,
            "unit": "dose",
            "system": "http://unitsofmeasure.org",
            "code": "1"
          }
        }
      },
      "request": {
        "method": "PUT",
        "url": "MedicationAdministration/5d4a42d3-4dac-42bb-8581-f6f9b83119a9"
      }
    },
    {
      "resource": {
        "resourceType": "Encounter",
        "id": "3e1dad79-005d-4050-8aa4-54a8dc4bd75d",
        "status": "finished",
        "class": {
          "system": "http://terminology.hl7.org/CodeSystem/v3-ActCode",
          "code": "AMB",
          "display": "Ambulatory"
        },
        "type": [
          {
            "coding": [
              {
                "system": "http://snomed.info/sct",
                "code": "308646001",
                "display": "Radiation Therapy Session 1"
              }
            ],
            "text": "Radiation Therapy Session 1"
          }
        ],
        "subject": {
          "reference": "Patient/061779fa-c2b8-4eb2-b0b6-c05c869144a2",
          "display": "Sakura Chen"
        },
        "participant": [
          {
            "individual": {
              "reference": "Practitioner/a17627fb-79b2-42ab-8148-80b682632b51",
              "display": "Dr. Sarah Johnson"
            }
          }
        ],
        "period": {
          "start": "2021-05-30"
        },
        "serviceProvider": {
          "reference": "Organization/830276dd-de46-47b3-bb9a-604d3f774c49",
          "display": "Comprehensive Cancer Center"
        },
        "reasonReference": [
          {
            "reference": "Condition/9443a659-c2d3-4382-9a82-fb151e00b445",
            "display": "glioblastoma multiforme"
          }
        ]
      },
      "request": {
        "method": "PUT",
        "url": "Encounter/3e1dad79-005d-4050-8aa4-54a8dc4bd75d"
      }
    },
    {
      "resource": {
        "resourceType": "Procedure",
        "id": "37122f35-72ea-4d4d-9956-172e88025a74",
        "status": "completed",
        "code": {
          "coding": [
            {
              "system": "http://snomed.info/sct",
              "code": "387713003",
              "display": "Radiation therapy"
            }
          ],
          "text": "Radiation therapy"
        },
        "subject": {
          "reference": "Patient/061779fa-c2b8-4eb2-b0b6-c05c869144a2",
          "display": "Sakura Chen"
        },
        "encounter": {
          "reference": "Encounter/3e1dad79-005d-4050-8aa4-54a8dc4bd75d"
        },
        "performedDateTime": "2021-05-30",
        "performer": [
          {
            "actor": {
              "reference": "Practitioner/a17627fb-79b2-42ab-8148-80b682632b51",
              "display": "Dr. Sarah Johnson"
            }
          }
        ],
        "reasonReference": [
          {
            "reference": "Condition/9443a659-c2d3-4382-9a82-fb151e00b445",
            "display": "glioblastoma multiforme"
          }
        ]
      },
      "request": {
        "method": "PUT",
        "url": "Procedure/37122f35-72ea-4d4d-9956-172e88025a74"
      }
    },
    {
      "resource": {
        "resourceType": "MedicationAdministration",
        "id": "e93f2680-89dd-4a79-8cd4-f17d0f7ae619",
        "status": "completed",
        "medicationCodeableConcept": {
          "coding": [
            {
              "system": "http://www.nlm.nih.gov/research/umls/rxnorm",
              "code": "123456",
              "display": "Radiation sensitizers"
            }
          ],
          "text": "Radiation sensitizers"
        },
        "subject": {
          "reference": "Patient/061779fa-c2b8-4eb2-b0b6-c05c869144a2",
          "display": "Sakura Chen"
        },
        "context": {
          "reference": "Encounter/3e1dad79-005d-4050-8aa4-54a8dc4bd75d"
        },
        "effectiveDateTime": "2021-05-30",
        "performer": [
          {
            "actor": {
              "reference": "Practitioner/a17627fb-79b2-42ab-8148-80b682632b51",
              "display": "Dr. Sarah Johnson"
            }
          }
        ],
        "reasonReference": [
          {
            "reference": "Condition/9443a659-c2d3-4382-9a82-fb151e00b445",
            "display": "glioblastoma multiforme"
          }
        ],
        "dosage": {
          "text": "As prescribed per protocol",
          "route": {
            "coding": [
              {
                "system": "http://snomed.info/sct",
                "code": "47625008",
                "display": "Intravenous route"
              }
            ]
          },
          "dose": {
            "value": 1,
            "unit": "dose",
            "system": "http://unitsofmeasure.org",
            "code": "1"
          }
        }
      },
      "request": {
        "method": "PUT",
        "url": "MedicationAdministration/e93f2680-89dd-4a79-8cd4-f17d0f7ae619"
      }
    },
    {
      "resource": {
        "resourceType": "MedicationAdministration",
        "id": "5322b9b8-8163-4132-8d95-ffe9e7e5f4be",
        "status": "completed",
        "medicationCodeableConcept": {
          "coding": [
            {
              "system": "http://www.nlm.nih.gov/research/umls/rxnorm",
              "code": "123456",
              "display": "Topical analgesics"
            }
          ],
          "text": "Topical analgesics"
        },
        "subject": {
          "reference": "Patient/061779fa-c2b8-4eb2-b0b6-c05c869144a2",
          "display": "Sakura Chen"
        },
        "context": {
          "reference": "Encounter/3e1dad79-005d-4050-8aa4-54a8dc4bd75d"
        },
        "effectiveDateTime": "2021-05-30",
        "performer": [
          {
            "actor": {
              "reference": "Practitioner/a17627fb-79b2-42ab-8148-80b682632b51",
              "display": "Dr. Sarah Johnson"
            }
          }
        ],
        "reasonReference": [
          {
            "reference": "Condition/9443a659-c2d3-4382-9a82-fb151e00b445",
            "display": "glioblastoma multiforme"
          }
        ],
        "dosage": {
          "text": "As prescribed per protocol",
          "route": {
            "coding": [
              {
                "system": "http://snomed.info/sct",
                "code": "47625008",
                "display": "Intravenous route"
              }
            ]
          },
          "dose": {
            "value": 1,
            "unit": "dose",
            "system": "http://unitsofmeasure.org",
            "code": "1"
          }
        }
      },
      "request": {
        "method": "PUT",
        "url": "MedicationAdministration/5322b9b8-8163-4132-8d95-ffe9e7e5f4be"
      }
    },
    {
      "resource": {
        "resourceType": "Encounter",
        "id": "635768d5-5c0c-431b-8c40-812ebaf6524e",
        "status": "finished",
        "class": {
          "system": "http://terminology.hl7.org/CodeSystem/v3-ActCode",
          "code": "AMB",
          "display": "Ambulatory"
        },
        "type": [
          {
            "coding": [
              {
                "system": "http://snomed.info/sct",
                "code": "308646001",
                "display": "Radiation Therapy Session 2"
              }
            ],
            "text": "Radiation Therapy Session 2"
          }
        ],
        "subject": {
          "reference": "Patient/061779fa-c2b8-4eb2-b0b6-c05c869144a2",
          "display": "Sakura Chen"
        },
        "participant": [
          {
            "individual": {
              "reference": "Practitioner/a17627fb-79b2-42ab-8148-80b682632b51",
              "display": "Dr. Sarah Johnson"
            }
          }
        ],
        "period": {
          "start": "2021-06-15"
        },
        "serviceProvider": {
          "reference": "Organization/830276dd-de46-47b3-bb9a-604d3f774c49",
          "display": "Comprehensive Cancer Center"
        },
        "reasonReference": [
          {
            "reference": "Condition/9443a659-c2d3-4382-9a82-fb151e00b445",
            "display": "glioblastoma multiforme"
          }
        ]
      },
      "request": {
        "method": "PUT",
        "url": "Encounter/635768d5-5c0c-431b-8c40-812ebaf6524e"
      }
    },
    {
      "resource": {
        "resourceType": "Procedure",
        "id": "8228a377-8735-4234-8d1c-81d92ce518f1",
        "status": "completed",
        "code": {
          "coding": [
            {
              "system": "http://snomed.info/sct",
              "code": "387713003",
              "display": "Radiation therapy"
            }
          ],
          "text": "Radiation therapy"
        },
        "subject": {
          "reference": "Patient/061779fa-c2b8-4eb2-b0b6-c05c869144a2",
          "display": "Sakura Chen"
        },
        "encounter": {
          "reference": "Encounter/635768d5-5c0c-431b-8c40-812ebaf6524e"
        },
        "performedDateTime": "2021-06-15",
        "performer": [
          {
            "actor": {
              "reference": "Practitioner/a17627fb-79b2-42ab-8148-80b682632b51",
              "display": "Dr. Sarah Johnson"
            }
          }
        ],
        "reasonReference": [
          {
            "reference": "Condition/9443a659-c2d3-4382-9a82-fb151e00b445",
            "display": "glioblastoma multiforme"
          }
        ]
      },
      "request": {
        "method": "PUT",
        "url": "Procedure/8228a377-8735-4234-8d1c-81d92ce518f1"
      }
    },
    {
      "resource": {
        "resourceType": "MedicationAdministration",
        "id": "3d268c9d-5a0b-45ab-94b8-e5ce89e4d43f",
        "status": "completed",
        "medicationCodeableConcept": {
          "coding": [
            {
              "system": "http://www.nlm.nih.gov/research/umls/rxnorm",
              "code": "123456",
              "display": "Radiation sensitizers"
            }
          ],
          "text": "Radiation sensitizers"
        },
        "subject": {
          "reference": "Patient/061779fa-c2b8-4eb2-b0b6-c05c869144a2",
          "display": "Sakura Chen"
        },
        "context": {
          "reference": "Encounter/635768d5-5c0c-431b-8c40-812ebaf6524e"
        },
        "effectiveDateTime": "2021-06-15",
        "performer": [
          {
            "actor": {
              "reference": "Practitioner/a17627fb-79b2-42ab-8148-80b682632b51",
              "display": "Dr. Sarah Johnson"
            }
          }
        ],
        "reasonReference": [
          {
            "reference": "Condition/9443a659-c2d3-4382-9a82-fb151e00b445",
            "display": "glioblastoma multiforme"
          }
        ],
        "dosage": {
          "text": "As prescribed per protocol",
          "route": {
            "coding": [
              {
                "system": "http://snomed.info/sct",
                "code": "47625008",
                "display": "Intravenous route"
              }
            ]
          },
          "dose": {
            "value": 1,
            "unit": "dose",
            "system": "http://unitsofmeasure.org",
            "code": "1"
          }
        }
      },
      "request": {
        "method": "PUT",
        "url": "MedicationAdministration/3d268c9d-5a0b-45ab-94b8-e5ce89e4d43f"
      }
    },
    {
      "resource": {
        "resourceType": "MedicationAdministration",
        "id": "2d2bf54a-5ad2-4d5d-85eb-833b5beb04df",
        "status": "completed",
        "medicationCodeableConcept": {
          "coding": [
            {
              "system": "http://www.nlm.nih.gov/research/umls/rxnorm",
              "code": "123456",
              "display": "Topical analgesics"
            }
          ],
          "text": "Topical analgesics"
        },
        "subject": {
          "reference": "Patient/061779fa-c2b8-4eb2-b0b6-c05c869144a2",
          "display": "Sakura Chen"
        },
        "context": {
          "reference": "Encounter/635768d5-5c0c-431b-8c40-812ebaf6524e"
        },
        "effectiveDateTime": "2021-06-15",
        "performer": [
          {
            "actor": {
              "reference": "Practitioner/a17627fb-79b2-42ab-8148-80b682632b51",
              "display": "Dr. Sarah Johnson"
            }
          }
        ],
        "reasonReference": [
          {
            "reference": "Condition/9443a659-c2d3-4382-9a82-fb151e00b445",
            "display": "glioblastoma multiforme"
          }
        ],
        "dosage": {
          "text": "As prescribed per protocol",
          "route": {
            "coding": [
              {
                "system": "http://snomed.info/sct",
                "code": "47625008",
                "display": "Intravenous route"
              }
            ]
          },
          "dose": {
            "value": 1,
            "unit": "dose",
            "system": "http://unitsofmeasure.org",
            "code": "1"
          }
        }
      },
      "request": {
        "method": "PUT",
        "url": "MedicationAdministration/2d2bf54a-5ad2-4d5d-85eb-833b5beb04df"
      }
    },
    {
      "resource": {
        "resourceType": "Encounter",
        "id": "aa8419ce-736f-4b0b-98a3-665a32cd3c7d",
        "status": "finished",
        "class": {
          "system": "http://terminology.hl7.org/CodeSystem/v3-ActCode",
          "code": "AMB",
          "display": "Ambulatory"
        },
        "type": [
          {
            "coding": [
              {
                "system": "http://snomed.info/sct",
                "code": "308646001",
                "display": "Follow-up visit post-chemo/radiation"
              }
            ],
            "text": "Follow-up visit post-chemo/radiation"
          }
        ],
        "subject": {
          "reference": "Patient/061779fa-c2b8-4eb2-b0b6-c05c869144a2",
          "display": "Sakura Chen"
        },
        "participant": [
          {
            "individual": {
              "reference": "Practitioner/a17627fb-79b2-42ab-8148-80b682632b51",
              "display": "Dr. Sarah Johnson"
            }
          }
        ],
        "period": {
          "start": "2021-07-01"
        },
        "serviceProvider": {
          "reference": "Organization/830276dd-de46-47b3-bb9a-604d3f774c49",
          "display": "Comprehensive Cancer Center"
        },
        "reasonReference": [
          {
            "reference": "Condition/9443a659-c2d3-4382-9a82-fb151e00b445",
            "display": "glioblastoma multiforme"
          }
        ]
      },
      "request": {
        "method": "PUT",
        "url": "Encounter/aa8419ce-736f-4b0b-98a3-665a32cd3c7d"
      }
    },
    {
      "resource": {
        "resourceType": "Encounter",
        "id": "7058663a-5d95-4451-9cf2-64ea9ee9bab1",
        "status": "finished",
        "class": {
          "system": "http://terminology.hl7.org/CodeSystem/v3-ActCode",
          "code": "AMB",
          "display": "Ambulatory"
        },
        "type": [
          {
            "coding": [
              {
                "system": "http://snomed.info/sct",
                "code": "308646001",
                "display": "Treatment response evaluation"
              }
            ],
            "text": "Treatment response evaluation"
          }
        ],
        "subject": {
          "reference": "Patient/061779fa-c2b8-4eb2-b0b6-c05c869144a2",
          "display": "Sakura Chen"
        },
        "participant": [
          {
            "individual": {
              "reference": "Practitioner/a17627fb-79b2-42ab-8148-80b682632b51",
              "display": "Dr. Sarah Johnson"
            }
          }
        ],
        "period": {
          "start": "2021-07-15"
        },
        "serviceProvider": {
          "reference": "Organization/830276dd-de46-47b3-bb9a-604d3f774c49",
          "display": "Comprehensive Cancer Center"
        },
        "reasonReference": [
          {
            "reference": "Condition/9443a659-c2d3-4382-9a82-fb151e00b445",
            "display": "glioblastoma multiforme"
          }
        ]
      },
      "request": {
        "method": "PUT",
        "url": "Encounter/7058663a-5d95-4451-9cf2-64ea9ee9bab1"
      }
    },
    {
      "resource": {
        "resourceType": "Encounter",
        "id": "79579538-c37e-406d-b5f3-2de43645e031",
        "status": "finished",
        "class": {
          "system": "http://terminology.hl7.org/CodeSystem/v3-ActCode",
          "code": "AMB",
          "display": "Ambulatory"
        },
        "type": [
          {
            "coding": [
              {
                "system": "http://snomed.info/sct",
                "code": "308646001",
                "display": "Symptom management"
              }
            ],
            "text": "Symptom management"
          }
        ],
        "subject": {
          "reference": "Patient/061779fa-c2b8-4eb2-b0b6-c05c869144a2",
          "display": "Sakura Chen"
        },
        "participant": [
          {
            "individual": {
              "reference": "Practitioner/a17627fb-79b2-42ab-8148-80b682632b51",
              "display": "Dr. Sarah Johnson"
            }
          }
        ],
        "period": {
          "start": "2021-07-30"
        },
        "serviceProvider": {
          "reference": "Organization/830276dd-de46-47b3-bb9a-604d3f774c49",
          "display": "Comprehensive Cancer Center"
        },
        "reasonReference": [
          {
            "reference": "Condition/9443a659-c2d3-4382-9a82-fb151e00b445",
            "display": "glioblastoma multiforme"
          }
        ]
      },
      "request": {
        "method": "PUT",
        "url": "Encounter/79579538-c37e-406d-b5f3-2de43645e031"
      }
    },
    {
      "resource": {
        "resourceType": "DiagnosticReport",
        "status": "final",
        "category": [
          {
            "coding": [
              {
                "system": "http://terminology.hl7.org/CodeSystem/v2-0074",
                "code": "RAD",
                "display": "Radiology"
              }
            ]
          }
        ],
        "code": {
          "coding": [
            {
              "system": "http://loinc.org",
              "code": "18748-4",
              "display": "Diagnostic imaging study"
            }
          ]
        },
        "subject": {
          "reference": "Patient/061779fa-c2b8-4eb2-b0b6-c05c869144a2",
          "display": "Sakura Chen"
        },
        "effectiveDateTime": "2021-07-01",
        "performer": [
          {
            "reference": "Practitioner/a17627fb-79b2-42ab-8148-80b682632b51",
            "display": "Dr. Sarah Johnson"
          }
        ],
        "conclusion": "Patient shows stable status for glioblastoma multiforme. Sakura Chen, a 46-year-old Asian female, was diagnosed with Stage IV glioblastoma multiforme. She underwent surgery for tumor resection followed by chemotherapy cycles and radiation therapy. Currently, she is stable and undergoing regular follow-up visits for symptom management and treatment response evaluation."
      },
      "request": {
        "method": "POST",
        "url": "DiagnosticReport"
      }
    },
    {
      "resource": {
        "resourceType": "Observation",
        "status": "final",
        "category": [
          {
            "coding": [
              {
                "system": "http://terminology.hl7.org/CodeSystem/observation-category",
                "code": "clinical",
                "display": "Clinical"
              }
            ]
          }
        ],
        "code": {
          "coding": [
            {
              "system": "http://loinc.org",
              "code": "11323-3",
              "display": "Health status"
            }
          ]
        },
        "subject": {
          "reference": "Patient/061779fa-c2b8-4eb2-b0b6-c05c869144a2",
          "display": "Sakura Chen"
        },
        "valueString": "stable",
        "effectiveDateTime": "2021-07-01"
      },
      "request": {
        "method": "POST",
        "url": "Observation"
      }
    }
  ]
}