{
  "resourceType": "Bundle",
  "id": "7004715d-9361-4b1f-aec1-53a3aa134f85",
  "type": "transaction",
  "entry": [
    {
      "resource": {
        "resourceType": "Patient",
        "id": "b59abd8f-33b7-419d-ad12-9f8e7d7fe9da",
        "name": [
          {
            "use": "official",
            "family": "Nguyen",
            "given": [
              "Aisha"
            ]
          }
        ],
        "gender": "female",
        "birthDate": "1965-09-18",
        "address": [
          {
            "use": "home",
            "line": [
              "123 Pearl Street"
            ],
            "city": "San Francisco",
            "state": "CA",
            "postalCode": "94107",
            "country": "USA"
          }
        ],
        "telecom": [
          {
            "system": "phone",
            "value": "(415) 555-1234",
            "use": "home"
          },
          {
            "system": "email",
            "value": "aisha.nguyen@example.com",
            "use": "home"
          }
        ],
        "extension": [
          {
            "url": "http://hl7.org/fhir/us/core/StructureDefinition/us-core-ethnicity",
            "valueString": "Asian"
          }
        ]
      },
      "request": {
        "method": "PUT",
        "url": "Patient/b59abd8f-33b7-419d-ad12-9f8e7d7fe9da"
      }
    },
    {
      "resource": {
        "resourceType": "Practitioner",
        "id": "38c7117b-1d02-4331-acc6-c532f4d6d28c",
        "name": [
          {
            "use": "official",
            "family": "Johnson",
            "given": [
              "Dr. Sarah"
            ],
            "prefix": [
              "Dr."
            ]
          }
        ],
        "qualification": [
          {
            "code": {
              "coding": [
                {
                  "system": "http://terminology.hl7.org/CodeSystem/v2-0360",
                  "code": "MD",
                  "display": "Doctor of Medicine"
                }
              ]
            }
          }
        ]
      },
      "request": {
        "method": "PUT",
        "url": "Practitioner/38c7117b-1d02-4331-acc6-c532f4d6d28c"
      }
    },
    {
      "resource": {
        "resourceType": "Organization",
        "id": "3c3c9351-0047-4ccc-89aa-5cb098eceb3b",
        "name": "Comprehensive Cancer Center",
        "type": [
          {
            "coding": [
              {
                "system": "http://terminology.hl7.org/CodeSystem/organization-type",
                "code": "prov",
                "display": "Healthcare Provider"
              }
            ]
          }
        ]
      },
      "request": {
        "method": "PUT",
        "url": "Organization/3c3c9351-0047-4ccc-89aa-5cb098eceb3b"
      }
    },
    {
      "resource": {
        "resourceType": "Condition",
        "id": "515af0dc-a402-4b5e-a63f-a9414115a240",
        "clinicalStatus": {
          "coding": [
            {
              "system": "http://terminology.hl7.org/CodeSystem/condition-clinical",
              "code": "resolved",
              "display": "Resolved"
            }
          ]
        },
        "verificationStatus": {
          "coding": [
            {
              "system": "http://terminology.hl7.org/CodeSystem/condition-ver-status",
              "code": "confirmed",
              "display": "Confirmed"
            }
          ]
        },
        "code": {
          "coding": [
            {
              "system": "http://snomed.info/sct",
              "code": "69896004",
              "display": "rheumatoid arthritis"
            }
          ],
          "text": "rheumatoid arthritis"
        },
        "subject": {
          "reference": "Patient/b59abd8f-33b7-419d-ad12-9f8e7d7fe9da",
          "display": "Aisha Nguyen"
        },
        "onsetDateTime": "2010-03-12",
        "recordedDate": "2010-04-02"
      },
      "request": {
        "method": "PUT",
        "url": "Condition/515af0dc-a402-4b5e-a63f-a9414115a240"
      }
    },
    {
      "resource": {
        "resourceType": "CarePlan",
        "id": "e6a258f2-0a4d-4363-a274-6acfe514a78f",
        "status": "active",
        "intent": "plan",
        "title": "Treatment plan for rheumatoid arthritis",
        "description": "Comprehensive treatment plan including Medication adjustments, Specialist consultations, Physical therapy sessions",
        "subject": {
          "reference": "Patient/b59abd8f-33b7-419d-ad12-9f8e7d7fe9da",
          "display": "Aisha Nguyen"
        },
        "period": {
          "start": "2010-04-15"
        },
        "addresses": [
          {
            "reference": "Condition/515af0dc-a402-4b5e-a63f-a9414115a240",
            "display": "rheumatoid arthritis"
          }
        ],
        "author": [
          {
            "reference": "Practitioner/38c7117b-1d02-4331-acc6-c532f4d6d28c",
            "display": "Dr. Sarah Johnson"
          }
        ]
      },
      "request": {
        "method": "PUT",
        "url": "CarePlan/e6a258f2-0a4d-4363-a274-6acfe514a78f"
      }
    },
    {
      "resource": {
        "resourceType": "Encounter",
        "id": "6064af06-e9fb-4bc1-a4ee-8ef9eaabd694",
        "status": "finished",
        "class": {
          "system": "http://terminology.hl7.org/CodeSystem/v3-ActCode",
          "code": "AMB",
          "display": "Ambulatory"
        },
        "type": [
          {
            "coding": [
              {
                "system": "http://snomed.info/sct",
                "code": "308646001",
                "display": "Initial medication adjustment"
              }
            ],
            "text": "Initial medication adjustment"
          }
        ],
        "subject": {
          "reference": "Patient/b59abd8f-33b7-419d-ad12-9f8e7d7fe9da",
          "display": "Aisha Nguyen"
        },
        "participant": [
          {
            "individual": {
              "reference": "Practitioner/38c7117b-1d02-4331-acc6-c532f4d6d28c",
              "display": "Dr. Sarah Johnson"
            }
          }
        ],
        "period": {
          "start": "2010-04-15"
        },
        "serviceProvider": {
          "reference": "Organization/3c3c9351-0047-4ccc-89aa-5cb098eceb3b",
          "display": "Comprehensive Cancer Center"
        },
        "reasonReference": [
          {
            "reference": "Condition/515af0dc-a402-4b5e-a63f-a9414115a240",
            "display": "rheumatoid arthritis"
          }
        ]
      },
      "request": {
        "method": "PUT",
        "url": "Encounter/6064af06-e9fb-4bc1-a4ee-8ef9eaabd694"
      }
    },
    {
      "resource": {
        "resourceType": "Procedure",
        "id": "744792cd-9cf4-40e2-ab21-feec72f436f9",
        "status": "completed",
        "code": {
          "coding": [
            {
              "system": "http://snomed.info/sct",
              "code": "387713003",
              "display": "Blood tests"
            }
          ],
          "text": "Blood tests"
        },
        "subject": {
          "reference": "Patient/b59abd8f-33b7-419d-ad12-9f8e7d7fe9da",
          "display": "Aisha Nguyen"
        },
        "encounter": {
          "reference": "Encounter/6064af06-e9fb-4bc1-a4ee-8ef9eaabd694"
        },
        "performedDateTime": "2010-04-15",
        "performer": [
          {
            "actor": {
              "reference": "Practitioner/38c7117b-1d02-4331-acc6-c532f4d6d28c",
              "display": "Dr. Sarah Johnson"
            }
          }
        ],
        "reasonReference": [
          {
            "reference": "Condition/515af0dc-a402-4b5e-a63f-a9414115a240",
            "display": "rheumatoid arthritis"
          }
        ]
      },
      "request": {
        "method": "PUT",
        "url": "Procedure/744792cd-9cf4-40e2-ab21-feec72f436f9"
      }
    },
    {
      "resource": {
        "resourceType": "Procedure",
        "id": "01de39d8-5bcd-40e9-8299-7fefeda0a3fd",
        "status": "completed",
        "code": {
          "coding": [
            {
              "system": "http://snomed.info/sct",
              "code": "387713003",
              "display": "Joint examination"
            }
          ],
          "text": "Joint examination"
        },
        "subject": {
          "reference": "Patient/b59abd8f-33b7-419d-ad12-9f8e7d7fe9da",
          "display": "Aisha Nguyen"
        },
        "encounter": {
          "reference": "Encounter/6064af06-e9fb-4bc1-a4ee-8ef9eaabd694"
        },
        "performedDateTime": "2010-04-15",
        "performer": [
          {
            "actor": {
              "reference": "Practitioner/38c7117b-1d02-4331-acc6-c532f4d6d28c",
              "display": "Dr. Sarah Johnson"
            }
          }
        ],
        "reasonReference": [
          {
            "reference": "Condition/515af0dc-a402-4b5e-a63f-a9414115a240",
            "display": "rheumatoid arthritis"
          }
        ]
      },
      "request": {
        "method": "PUT",
        "url": "Procedure/01de39d8-5bcd-40e9-8299-7fefeda0a3fd"
      }
    },
    {
      "resource": {
        "resourceType": "MedicationAdministration",
        "id": "3efb5e33-ffee-4bdd-a98e-b9c7fdce4d55",
        "status": "completed",
        "medicationCodeableConcept": {
          "coding": [
            {
              "system": "http://www.nlm.nih.gov/research/umls/rxnorm",
              "code": "123456",
              "display": "Methotrexate"
            }
          ],
          "text": "Methotrexate"
        },
        "subject": {
          "reference": "Patient/b59abd8f-33b7-419d-ad12-9f8e7d7fe9da",
          "display": "Aisha Nguyen"
        },
        "context": {
          "reference": "Encounter/6064af06-e9fb-4bc1-a4ee-8ef9eaabd694"
        },
        "effectiveDateTime": "2010-04-15",
        "performer": [
          {
            "actor": {
              "reference": "Practitioner/38c7117b-1d02-4331-acc6-c532f4d6d28c",
              "display": "Dr. Sarah Johnson"
            }
          }
        ],
        "reasonReference": [
          {
            "reference": "Condition/515af0dc-a402-4b5e-a63f-a9414115a240",
            "display": "rheumatoid arthritis"
          }
        ],
        "dosage": {
          "text": "As prescribed per protocol",
          "route": {
            "coding": [
              {
                "system": "http://snomed.info/sct",
                "code": "47625008",
                "display": "Intravenous route"
              }
            ]
          },
          "dose": {
            "value": 1,
            "unit": "dose",
            "system": "http://unitsofmeasure.org",
            "code": "1"
          }
        }
      },
      "request": {
        "method": "PUT",
        "url": "MedicationAdministration/3efb5e33-ffee-4bdd-a98e-b9c7fdce4d55"
      }
    },
    {
      "resource": {
        "resourceType": "MedicationAdministration",
        "id": "9c755d48-a02f-4823-80e8-01a634d7d5f9",
        "status": "completed",
        "medicationCodeableConcept": {
          "coding": [
            {
              "system": "http://www.nlm.nih.gov/research/umls/rxnorm",
              "code": "123456",
              "display": "Prednisone"
            }
          ],
          "text": "Prednisone"
        },
        "subject": {
          "reference": "Patient/b59abd8f-33b7-419d-ad12-9f8e7d7fe9da",
          "display": "Aisha Nguyen"
        },
        "context": {
          "reference": "Encounter/6064af06-e9fb-4bc1-a4ee-8ef9eaabd694"
        },
        "effectiveDateTime": "2010-04-15",
        "performer": [
          {
            "actor": {
              "reference": "Practitioner/38c7117b-1d02-4331-acc6-c532f4d6d28c",
              "display": "Dr. Sarah Johnson"
            }
          }
        ],
        "reasonReference": [
          {
            "reference": "Condition/515af0dc-a402-4b5e-a63f-a9414115a240",
            "display": "rheumatoid arthritis"
          }
        ],
        "dosage": {
          "text": "As prescribed per protocol",
          "route": {
            "coding": [
              {
                "system": "http://snomed.info/sct",
                "code": "47625008",
                "display": "Intravenous route"
              }
            ]
          },
          "dose": {
            "value": 1,
            "unit": "dose",
            "system": "http://unitsofmeasure.org",
            "code": "1"
          }
        }
      },
      "request": {
        "method": "PUT",
        "url": "MedicationAdministration/9c755d48-a02f-4823-80e8-01a634d7d5f9"
      }
    },
    {
      "resource": {
        "resourceType": "Encounter",
        "id": "11b13e39-9f2e-4870-aa9c-ffa7175b3177",
        "status": "finished",
        "class": {
          "system": "http://terminology.hl7.org/CodeSystem/v3-ActCode",
          "code": "AMB",
          "display": "Ambulatory"
        },
        "type": [
          {
            "coding": [
              {
                "system": "http://snomed.info/sct",
                "code": "308646001",
                "display": "Follow-up medication assessment"
              }
            ],
            "text": "Follow-up medication assessment"
          }
        ],
        "subject": {
          "reference": "Patient/b59abd8f-33b7-419d-ad12-9f8e7d7fe9da",
          "display": "Aisha Nguyen"
        },
        "participant": [
          {
            "individual": {
              "reference": "Practitioner/38c7117b-1d02-4331-acc6-c532f4d6d28c",
              "display": "Dr. Sarah Johnson"
            }
          }
        ],
        "period": {
          "start": "2010-05-01"
        },
        "serviceProvider": {
          "reference": "Organization/3c3c9351-0047-4ccc-89aa-5cb098eceb3b",
          "display": "Comprehensive Cancer Center"
        },
        "reasonReference": [
          {
            "reference": "Condition/515af0dc-a402-4b5e-a63f-a9414115a240",
            "display": "rheumatoid arthritis"
          }
        ]
      },
      "request": {
        "method": "PUT",
        "url": "Encounter/11b13e39-9f2e-4870-aa9c-ffa7175b3177"
      }
    },
    {
      "resource": {
        "resourceType": "Procedure",
        "id": "ece859e9-4193-4769-b93f-1001b8c57013",
        "status": "completed",
        "code": {
          "coding": [
            {
              "system": "http://snomed.info/sct",
              "code": "387713003",
              "display": "Physical therapy session"
            }
          ],
          "text": "Physical therapy session"
        },
        "subject": {
          "reference": "Patient/b59abd8f-33b7-419d-ad12-9f8e7d7fe9da",
          "display": "Aisha Nguyen"
        },
        "encounter": {
          "reference": "Encounter/11b13e39-9f2e-4870-aa9c-ffa7175b3177"
        },
        "performedDateTime": "2010-05-01",
        "performer": [
          {
            "actor": {
              "reference": "Practitioner/38c7117b-1d02-4331-acc6-c532f4d6d28c",
              "display": "Dr. Sarah Johnson"
            }
          }
        ],
        "reasonReference": [
          {
            "reference": "Condition/515af0dc-a402-4b5e-a63f-a9414115a240",
            "display": "rheumatoid arthritis"
          }
        ]
      },
      "request": {
        "method": "PUT",
        "url": "Procedure/ece859e9-4193-4769-b93f-1001b8c57013"
      }
    },
    {
      "resource": {
        "resourceType": "Procedure",
        "id": "4ee94b4a-9a9c-4f88-9b95-80e241ce2538",
        "status": "completed",
        "code": {
          "coding": [
            {
              "system": "http://snomed.info/sct",
              "code": "387713003",
              "display": "Disease activity assessment"
            }
          ],
          "text": "Disease activity assessment"
        },
        "subject": {
          "reference": "Patient/b59abd8f-33b7-419d-ad12-9f8e7d7fe9da",
          "display": "Aisha Nguyen"
        },
        "encounter": {
          "reference": "Encounter/11b13e39-9f2e-4870-aa9c-ffa7175b3177"
        },
        "performedDateTime": "2010-05-01",
        "performer": [
          {
            "actor": {
              "reference": "Practitioner/38c7117b-1d02-4331-acc6-c532f4d6d28c",
              "display": "Dr. Sarah Johnson"
            }
          }
        ],
        "reasonReference": [
          {
            "reference": "Condition/515af0dc-a402-4b5e-a63f-a9414115a240",
            "display": "rheumatoid arthritis"
          }
        ]
      },
      "request": {
        "method": "PUT",
        "url": "Procedure/4ee94b4a-9a9c-4f88-9b95-80e241ce2538"
      }
    },
    {
      "resource": {
        "resourceType": "MedicationAdministration",
        "id": "93e37f66-226d-4433-8666-9f406d1acb8b",
        "status": "completed",
        "medicationCodeableConcept": {
          "coding": [
            {
              "system": "http://www.nlm.nih.gov/research/umls/rxnorm",
              "code": "123456",
              "display": "Etanercept"
            }
          ],
          "text": "Etanercept"
        },
        "subject": {
          "reference": "Patient/b59abd8f-33b7-419d-ad12-9f8e7d7fe9da",
          "display": "Aisha Nguyen"
        },
        "context": {
          "reference": "Encounter/11b13e39-9f2e-4870-aa9c-ffa7175b3177"
        },
        "effectiveDateTime": "2010-05-01",
        "performer": [
          {
            "actor": {
              "reference": "Practitioner/38c7117b-1d02-4331-acc6-c532f4d6d28c",
              "display": "Dr. Sarah Johnson"
            }
          }
        ],
        "reasonReference": [
          {
            "reference": "Condition/515af0dc-a402-4b5e-a63f-a9414115a240",
            "display": "rheumatoid arthritis"
          }
        ],
        "dosage": {
          "text": "As prescribed per protocol",
          "route": {
            "coding": [
              {
                "system": "http://snomed.info/sct",
                "code": "47625008",
                "display": "Intravenous route"
              }
            ]
          },
          "dose": {
            "value": 1,
            "unit": "dose",
            "system": "http://unitsofmeasure.org",
            "code": "1"
          }
        }
      },
      "request": {
        "method": "PUT",
        "url": "MedicationAdministration/93e37f66-226d-4433-8666-9f406d1acb8b"
      }
    },
    {
      "resource": {
        "resourceType": "MedicationAdministration",
        "id": "f893395d-3d65-43f0-a68f-bfe801e60710",
        "status": "completed",
        "medicationCodeableConcept": {
          "coding": [
            {
              "system": "http://www.nlm.nih.gov/research/umls/rxnorm",
              "code": "123456",
              "display": "Ibuprofen"
            }
          ],
          "text": "Ibuprofen"
        },
        "subject": {
          "reference": "Patient/b59abd8f-33b7-419d-ad12-9f8e7d7fe9da",
          "display": "Aisha Nguyen"
        },
        "context": {
          "reference": "Encounter/11b13e39-9f2e-4870-aa9c-ffa7175b3177"
        },
        "effectiveDateTime": "2010-05-01",
        "performer": [
          {
            "actor": {
              "reference": "Practitioner/38c7117b-1d02-4331-acc6-c532f4d6d28c",
              "display": "Dr. Sarah Johnson"
            }
          }
        ],
        "reasonReference": [
          {
            "reference": "Condition/515af0dc-a402-4b5e-a63f-a9414115a240",
            "display": "rheumatoid arthritis"
          }
        ],
        "dosage": {
          "text": "As prescribed per protocol",
          "route": {
            "coding": [
              {
                "system": "http://snomed.info/sct",
                "code": "47625008",
                "display": "Intravenous route"
              }
            ]
          },
          "dose": {
            "value": 1,
            "unit": "dose",
            "system": "http://unitsofmeasure.org",
            "code": "1"
          }
        }
      },
      "request": {
        "method": "PUT",
        "url": "MedicationAdministration/f893395d-3d65-43f0-a68f-bfe801e60710"
      }
    },
    {
      "resource": {
        "resourceType": "Encounter",
        "id": "a0639a43-bf94-4c4d-82b9-a15c6c924162",
        "status": "finished",
        "class": {
          "system": "http://terminology.hl7.org/CodeSystem/v3-ActCode",
          "code": "AMB",
          "display": "Ambulatory"
        },
        "type": [
          {
            "coding": [
              {
                "system": "http://snomed.info/sct",
                "code": "308646001",
                "display": "Medication response review"
              }
            ],
            "text": "Medication response review"
          }
        ],
        "subject": {
          "reference": "Patient/b59abd8f-33b7-419d-ad12-9f8e7d7fe9da",
          "display": "Aisha Nguyen"
        },
        "participant": [
          {
            "individual": {
              "reference": "Practitioner/38c7117b-1d02-4331-acc6-c532f4d6d28c",
              "display": "Dr. Sarah Johnson"
            }
          }
        ],
        "period": {
          "start": "2010-05-15"
        },
        "serviceProvider": {
          "reference": "Organization/3c3c9351-0047-4ccc-89aa-5cb098eceb3b",
          "display": "Comprehensive Cancer Center"
        },
        "reasonReference": [
          {
            "reference": "Condition/515af0dc-a402-4b5e-a63f-a9414115a240",
            "display": "rheumatoid arthritis"
          }
        ]
      },
      "request": {
        "method": "PUT",
        "url": "Encounter/a0639a43-bf94-4c4d-82b9-a15c6c924162"
      }
    },
    {
      "resource": {
        "resourceType": "Procedure",
        "id": "81c8facd-66e8-43eb-9b8d-8432b501318f",
        "status": "completed",
        "code": {
          "coding": [
            {
              "system": "http://snomed.info/sct",
              "code": "387713003",
              "display": "Blood pressure check"
            }
          ],
          "text": "Blood pressure check"
        },
        "subject": {
          "reference": "Patient/b59abd8f-33b7-419d-ad12-9f8e7d7fe9da",
          "display": "Aisha Nguyen"
        },
        "encounter": {
          "reference": "Encounter/a0639a43-bf94-4c4d-82b9-a15c6c924162"
        },
        "performedDateTime": "2010-05-15",
        "performer": [
          {
            "actor": {
              "reference": "Practitioner/38c7117b-1d02-4331-acc6-c532f4d6d28c",
              "display": "Dr. Sarah Johnson"
            }
          }
        ],
        "reasonReference": [
          {
            "reference": "Condition/515af0dc-a402-4b5e-a63f-a9414115a240",
            "display": "rheumatoid arthritis"
          }
        ]
      },
      "request": {
        "method": "PUT",
        "url": "Procedure/81c8facd-66e8-43eb-9b8d-8432b501318f"
      }
    },
    {
      "resource": {
        "resourceType": "Procedure",
        "id": "6a25156b-6e20-4789-87bb-5d909fec0edc",
        "status": "completed",
        "code": {
          "coding": [
            {
              "system": "http://snomed.info/sct",
              "code": "387713003",
              "display": "Pain assessment"
            }
          ],
          "text": "Pain assessment"
        },
        "subject": {
          "reference": "Patient/b59abd8f-33b7-419d-ad12-9f8e7d7fe9da",
          "display": "Aisha Nguyen"
        },
        "encounter": {
          "reference": "Encounter/a0639a43-bf94-4c4d-82b9-a15c6c924162"
        },
        "performedDateTime": "2010-05-15",
        "performer": [
          {
            "actor": {
              "reference": "Practitioner/38c7117b-1d02-4331-acc6-c532f4d6d28c",
              "display": "Dr. Sarah Johnson"
            }
          }
        ],
        "reasonReference": [
          {
            "reference": "Condition/515af0dc-a402-4b5e-a63f-a9414115a240",
            "display": "rheumatoid arthritis"
          }
        ]
      },
      "request": {
        "method": "PUT",
        "url": "Procedure/6a25156b-6e20-4789-87bb-5d909fec0edc"
      }
    },
    {
      "resource": {
        "resourceType": "MedicationAdministration",
        "id": "2807e007-2531-48dc-ba58-bf86ab9ace8b",
        "status": "completed",
        "medicationCodeableConcept": {
          "coding": [
            {
              "system": "http://www.nlm.nih.gov/research/umls/rxnorm",
              "code": "123456",
              "display": "Adalimumab"
            }
          ],
          "text": "Adalimumab"
        },
        "subject": {
          "reference": "Patient/b59abd8f-33b7-419d-ad12-9f8e7d7fe9da",
          "display": "Aisha Nguyen"
        },
        "context": {
          "reference": "Encounter/a0639a43-bf94-4c4d-82b9-a15c6c924162"
        },
        "effectiveDateTime": "2010-05-15",
        "performer": [
          {
            "actor": {
              "reference": "Practitioner/38c7117b-1d02-4331-acc6-c532f4d6d28c",
              "display": "Dr. Sarah Johnson"
            }
          }
        ],
        "reasonReference": [
          {
            "reference": "Condition/515af0dc-a402-4b5e-a63f-a9414115a240",
            "display": "rheumatoid arthritis"
          }
        ],
        "dosage": {
          "text": "As prescribed per protocol",
          "route": {
            "coding": [
              {
                "system": "http://snomed.info/sct",
                "code": "47625008",
                "display": "Intravenous route"
              }
            ]
          },
          "dose": {
            "value": 1,
            "unit": "dose",
            "system": "http://unitsofmeasure.org",
            "code": "1"
          }
        }
      },
      "request": {
        "method": "PUT",
        "url": "MedicationAdministration/2807e007-2531-48dc-ba58-bf86ab9ace8b"
      }
    },
    {
      "resource": {
        "resourceType": "MedicationAdministration",
        "id": "ad0ee76c-374c-4eee-91bf-557ce04c6b95",
        "status": "completed",
        "medicationCodeableConcept": {
          "coding": [
            {
              "system": "http://www.nlm.nih.gov/research/umls/rxnorm",
              "code": "123456",
              "display": "Naproxen"
            }
          ],
          "text": "Naproxen"
        },
        "subject": {
          "reference": "Patient/b59abd8f-33b7-419d-ad12-9f8e7d7fe9da",
          "display": "Aisha Nguyen"
        },
        "context": {
          "reference": "Encounter/a0639a43-bf94-4c4d-82b9-a15c6c924162"
        },
        "effectiveDateTime": "2010-05-15",
        "performer": [
          {
            "actor": {
              "reference": "Practitioner/38c7117b-1d02-4331-acc6-c532f4d6d28c",
              "display": "Dr. Sarah Johnson"
            }
          }
        ],
        "reasonReference": [
          {
            "reference": "Condition/515af0dc-a402-4b5e-a63f-a9414115a240",
            "display": "rheumatoid arthritis"
          }
        ],
        "dosage": {
          "text": "As prescribed per protocol",
          "route": {
            "coding": [
              {
                "system": "http://snomed.info/sct",
                "code": "47625008",
                "display": "Intravenous route"
              }
            ]
          },
          "dose": {
            "value": 1,
            "unit": "dose",
            "system": "http://unitsofmeasure.org",
            "code": "1"
          }
        }
      },
      "request": {
        "method": "PUT",
        "url": "MedicationAdministration/ad0ee76c-374c-4eee-91bf-557ce04c6b95"
      }
    },
    {
      "resource": {
        "resourceType": "Encounter",
        "id": "f6ee517f-f184-4da5-99fd-28cb6bace427",
        "status": "finished",
        "class": {
          "system": "http://terminology.hl7.org/CodeSystem/v3-ActCode",
          "code": "AMB",
          "display": "Ambulatory"
        },
        "type": [
          {
            "coding": [
              {
                "system": "http://snomed.info/sct",
                "code": "308646001",
                "display": "Rheumatologist consultation"
              }
            ],
            "text": "Rheumatologist consultation"
          }
        ],
        "subject": {
          "reference": "Patient/b59abd8f-33b7-419d-ad12-9f8e7d7fe9da",
          "display": "Aisha Nguyen"
        },
        "participant": [
          {
            "individual": {
              "reference": "Practitioner/38c7117b-1d02-4331-acc6-c532f4d6d28c",
              "display": "Dr. Sarah Johnson"
            }
          }
        ],
        "period": {
          "start": "2010-05-30"
        },
        "serviceProvider": {
          "reference": "Organization/3c3c9351-0047-4ccc-89aa-5cb098eceb3b",
          "display": "Comprehensive Cancer Center"
        },
        "reasonReference": [
          {
            "reference": "Condition/515af0dc-a402-4b5e-a63f-a9414115a240",
            "display": "rheumatoid arthritis"
          }
        ]
      },
      "request": {
        "method": "PUT",
        "url": "Encounter/f6ee517f-f184-4da5-99fd-28cb6bace427"
      }
    },
    {
      "resource": {
        "resourceType": "Procedure",
        "id": "a2326b2f-ab05-45d0-9c8e-b3d0025bb746",
        "status": "completed",
        "code": {
          "coding": [
            {
              "system": "http://snomed.info/sct",
              "code": "387713003",
              "display": "X-rays"
            }
          ],
          "text": "X-rays"
        },
        "subject": {
          "reference": "Patient/b59abd8f-33b7-419d-ad12-9f8e7d7fe9da",
          "display": "Aisha Nguyen"
        },
        "encounter": {
          "reference": "Encounter/f6ee517f-f184-4da5-99fd-28cb6bace427"
        },
        "performedDateTime": "2010-05-30",
        "performer": [
          {
            "actor": {
              "reference": "Practitioner/38c7117b-1d02-4331-acc6-c532f4d6d28c",
              "display": "Dr. Sarah Johnson"
            }
          }
        ],
        "reasonReference": [
          {
            "reference": "Condition/515af0dc-a402-4b5e-a63f-a9414115a240",
            "display": "rheumatoid arthritis"
          }
        ]
      },
      "request": {
        "method": "PUT",
        "url": "Procedure/a2326b2f-ab05-45d0-9c8e-b3d0025bb746"
      }
    },
    {
      "resource": {
        "resourceType": "Procedure",
        "id": "d5c72198-1717-4d38-a312-7b7583d403cc",
        "status": "completed",
        "code": {
          "coding": [
            {
              "system": "http://snomed.info/sct",
              "code": "387713003",
              "display": "Joint ultrasound"
            }
          ],
          "text": "Joint ultrasound"
        },
        "subject": {
          "reference": "Patient/b59abd8f-33b7-419d-ad12-9f8e7d7fe9da",
          "display": "Aisha Nguyen"
        },
        "encounter": {
          "reference": "Encounter/f6ee517f-f184-4da5-99fd-28cb6bace427"
        },
        "performedDateTime": "2010-05-30",
        "performer": [
          {
            "actor": {
              "reference": "Practitioner/38c7117b-1d02-4331-acc6-c532f4d6d28c",
              "display": "Dr. Sarah Johnson"
            }
          }
        ],
        "reasonReference": [
          {
            "reference": "Condition/515af0dc-a402-4b5e-a63f-a9414115a240",
            "display": "rheumatoid arthritis"
          }
        ]
      },
      "request": {
        "method": "PUT",
        "url": "Procedure/d5c72198-1717-4d38-a312-7b7583d403cc"
      }
    },
    {
      "resource": {
        "resourceType": "MedicationAdministration",
        "id": "dd1e312b-28e8-4335-9849-777698e41a23",
        "status": "completed",
        "medicationCodeableConcept": {
          "coding": [
            {
              "system": "http://www.nlm.nih.gov/research/umls/rxnorm",
              "code": "123456",
              "display": "Hydroxychloroquine"
            }
          ],
          "text": "Hydroxychloroquine"
        },
        "subject": {
          "reference": "Patient/b59abd8f-33b7-419d-ad12-9f8e7d7fe9da",
          "display": "Aisha Nguyen"
        },
        "context": {
          "reference": "Encounter/f6ee517f-f184-4da5-99fd-28cb6bace427"
        },
        "effectiveDateTime": "2010-05-30",
        "performer": [
          {
            "actor": {
              "reference": "Practitioner/38c7117b-1d02-4331-acc6-c532f4d6d28c",
              "display": "Dr. Sarah Johnson"
            }
          }
        ],
        "reasonReference": [
          {
            "reference": "Condition/515af0dc-a402-4b5e-a63f-a9414115a240",
            "display": "rheumatoid arthritis"
          }
        ],
        "dosage": {
          "text": "As prescribed per protocol",
          "route": {
            "coding": [
              {
                "system": "http://snomed.info/sct",
                "code": "47625008",
                "display": "Intravenous route"
              }
            ]
          },
          "dose": {
            "value": 1,
            "unit": "dose",
            "system": "http://unitsofmeasure.org",
            "code": "1"
          }
        }
      },
      "request": {
        "method": "PUT",
        "url": "MedicationAdministration/dd1e312b-28e8-4335-9849-777698e41a23"
      }
    },
    {
      "resource": {
        "resourceType": "MedicationAdministration",
        "id": "3bc44114-5d61-41f8-85f2-a5a69c95cf65",
        "status": "completed",
        "medicationCodeableConcept": {
          "coding": [
            {
              "system": "http://www.nlm.nih.gov/research/umls/rxnorm",
              "code": "123456",
              "display": "Sulfasalazine"
            }
          ],
          "text": "Sulfasalazine"
        },
        "subject": {
          "reference": "Patient/b59abd8f-33b7-419d-ad12-9f8e7d7fe9da",
          "display": "Aisha Nguyen"
        },
        "context": {
          "reference": "Encounter/f6ee517f-f184-4da5-99fd-28cb6bace427"
        },
        "effectiveDateTime": "2010-05-30",
        "performer": [
          {
            "actor": {
              "reference": "Practitioner/38c7117b-1d02-4331-acc6-c532f4d6d28c",
              "display": "Dr. Sarah Johnson"
            }
          }
        ],
        "reasonReference": [
          {
            "reference": "Condition/515af0dc-a402-4b5e-a63f-a9414115a240",
            "display": "rheumatoid arthritis"
          }
        ],
        "dosage": {
          "text": "As prescribed per protocol",
          "route": {
            "coding": [
              {
                "system": "http://snomed.info/sct",
                "code": "47625008",
                "display": "Intravenous route"
              }
            ]
          },
          "dose": {
            "value": 1,
            "unit": "dose",
            "system": "http://unitsofmeasure.org",
            "code": "1"
          }
        }
      },
      "request": {
        "method": "PUT",
        "url": "MedicationAdministration/3bc44114-5d61-41f8-85f2-a5a69c95cf65"
      }
    },
    {
      "resource": {
        "resourceType": "Encounter",
        "id": "722df3d0-35e4-4e52-98f3-92368e1902c4",
        "status": "finished",
        "class": {
          "system": "http://terminology.hl7.org/CodeSystem/v3-ActCode",
          "code": "AMB",
          "display": "Ambulatory"
        },
        "type": [
          {
            "coding": [
              {
                "system": "http://snomed.info/sct",
                "code": "308646001",
                "display": "Treatment plan discussion"
              }
            ],
            "text": "Treatment plan discussion"
          }
        ],
        "subject": {
          "reference": "Patient/b59abd8f-33b7-419d-ad12-9f8e7d7fe9da",
          "display": "Aisha Nguyen"
        },
        "participant": [
          {
            "individual": {
              "reference": "Practitioner/38c7117b-1d02-4331-acc6-c532f4d6d28c",
              "display": "Dr. Sarah Johnson"
            }
          }
        ],
        "period": {
          "start": "2010-06-15"
        },
        "serviceProvider": {
          "reference": "Organization/3c3c9351-0047-4ccc-89aa-5cb098eceb3b",
          "display": "Comprehensive Cancer Center"
        },
        "reasonReference": [
          {
            "reference": "Condition/515af0dc-a402-4b5e-a63f-a9414115a240",
            "display": "rheumatoid arthritis"
          }
        ]
      },
      "request": {
        "method": "PUT",
        "url": "Encounter/722df3d0-35e4-4e52-98f3-92368e1902c4"
      }
    },
    {
      "resource": {
        "resourceType": "Procedure",
        "id": "620b7d84-9fcf-4199-b416-c6b3deba7d98",
        "status": "completed",
        "code": {
          "coding": [
            {
              "system": "http://snomed.info/sct",
              "code": "387713003",
              "display": "Physical examination"
            }
          ],
          "text": "Physical examination"
        },
        "subject": {
          "reference": "Patient/b59abd8f-33b7-419d-ad12-9f8e7d7fe9da",
          "display": "Aisha Nguyen"
        },
        "encounter": {
          "reference": "Encounter/722df3d0-35e4-4e52-98f3-92368e1902c4"
        },
        "performedDateTime": "2010-06-15",
        "performer": [
          {
            "actor": {
              "reference": "Practitioner/38c7117b-1d02-4331-acc6-c532f4d6d28c",
              "display": "Dr. Sarah Johnson"
            }
          }
        ],
        "reasonReference": [
          {
            "reference": "Condition/515af0dc-a402-4b5e-a63f-a9414115a240",
            "display": "rheumatoid arthritis"
          }
        ]
      },
      "request": {
        "method": "PUT",
        "url": "Procedure/620b7d84-9fcf-4199-b416-c6b3deba7d98"
      }
    },
    {
      "resource": {
        "resourceType": "Procedure",
        "id": "87afc14c-f506-4a85-b571-b2872edd20f7",
        "status": "completed",
        "code": {
          "coding": [
            {
              "system": "http://snomed.info/sct",
              "code": "387713003",
              "display": "Pain assessment"
            }
          ],
          "text": "Pain assessment"
        },
        "subject": {
          "reference": "Patient/b59abd8f-33b7-419d-ad12-9f8e7d7fe9da",
          "display": "Aisha Nguyen"
        },
        "encounter": {
          "reference": "Encounter/722df3d0-35e4-4e52-98f3-92368e1902c4"
        },
        "performedDateTime": "2010-06-15",
        "performer": [
          {
            "actor": {
              "reference": "Practitioner/38c7117b-1d02-4331-acc6-c532f4d6d28c",
              "display": "Dr. Sarah Johnson"
            }
          }
        ],
        "reasonReference": [
          {
            "reference": "Condition/515af0dc-a402-4b5e-a63f-a9414115a240",
            "display": "rheumatoid arthritis"
          }
        ]
      },
      "request": {
        "method": "PUT",
        "url": "Procedure/87afc14c-f506-4a85-b571-b2872edd20f7"
      }
    },
    {
      "resource": {
        "resourceType": "MedicationAdministration",
        "id": "10b694e1-7807-4ac1-8dfa-515087ef24e0",
        "status": "completed",
        "medicationCodeableConcept": {
          "coding": [
            {
              "system": "http://www.nlm.nih.gov/research/umls/rxnorm",
              "code": "123456",
              "display": "Leflunomide"
            }
          ],
          "text": "Leflunomide"
        },
        "subject": {
          "reference": "Patient/b59abd8f-33b7-419d-ad12-9f8e7d7fe9da",
          "display": "Aisha Nguyen"
        },
        "context": {
          "reference": "Encounter/722df3d0-35e4-4e52-98f3-92368e1902c4"
        },
        "effectiveDateTime": "2010-06-15",
        "performer": [
          {
            "actor": {
              "reference": "Practitioner/38c7117b-1d02-4331-acc6-c532f4d6d28c",
              "display": "Dr. Sarah Johnson"
            }
          }
        ],
        "reasonReference": [
          {
            "reference": "Condition/515af0dc-a402-4b5e-a63f-a9414115a240",
            "display": "rheumatoid arthritis"
          }
        ],
        "dosage": {
          "text": "As prescribed per protocol",
          "route": {
            "coding": [
              {
                "system": "http://snomed.info/sct",
                "code": "47625008",
                "display": "Intravenous route"
              }
            ]
          },
          "dose": {
            "value": 1,
            "unit": "dose",
            "system": "http://unitsofmeasure.org",
            "code": "1"
          }
        }
      },
      "request": {
        "method": "PUT",
        "url": "MedicationAdministration/10b694e1-7807-4ac1-8dfa-515087ef24e0"
      }
    },
    {
      "resource": {
        "resourceType": "MedicationAdministration",
        "id": "87ae6793-ce8e-4fa0-ae2f-b538c27a6c56",
        "status": "completed",
        "medicationCodeableConcept": {
          "coding": [
            {
              "system": "http://www.nlm.nih.gov/research/umls/rxnorm",
              "code": "123456",
              "display": "Celecoxib"
            }
          ],
          "text": "Celecoxib"
        },
        "subject": {
          "reference": "Patient/b59abd8f-33b7-419d-ad12-9f8e7d7fe9da",
          "display": "Aisha Nguyen"
        },
        "context": {
          "reference": "Encounter/722df3d0-35e4-4e52-98f3-92368e1902c4"
        },
        "effectiveDateTime": "2010-06-15",
        "performer": [
          {
            "actor": {
              "reference": "Practitioner/38c7117b-1d02-4331-acc6-c532f4d6d28c",
              "display": "Dr. Sarah Johnson"
            }
          }
        ],
        "reasonReference": [
          {
            "reference": "Condition/515af0dc-a402-4b5e-a63f-a9414115a240",
            "display": "rheumatoid arthritis"
          }
        ],
        "dosage": {
          "text": "As prescribed per protocol",
          "route": {
            "coding": [
              {
                "system": "http://snomed.info/sct",
                "code": "47625008",
                "display": "Intravenous route"
              }
            ]
          },
          "dose": {
            "value": 1,
            "unit": "dose",
            "system": "http://unitsofmeasure.org",
            "code": "1"
          }
        }
      },
      "request": {
        "method": "PUT",
        "url": "MedicationAdministration/87ae6793-ce8e-4fa0-ae2f-b538c27a6c56"
      }
    },
    {
      "resource": {
        "resourceType": "Encounter",
        "id": "de809fa2-8e43-4317-9787-534a90c1ffd7",
        "status": "finished",
        "class": {
          "system": "http://terminology.hl7.org/CodeSystem/v3-ActCode",
          "code": "AMB",
          "display": "Ambulatory"
        },
        "type": [
          {
            "coding": [
              {
                "system": "http://snomed.info/sct",
                "code": "308646001",
                "display": "Second opinion visit"
              }
            ],
            "text": "Second opinion visit"
          }
        ],
        "subject": {
          "reference": "Patient/b59abd8f-33b7-419d-ad12-9f8e7d7fe9da",
          "display": "Aisha Nguyen"
        },
        "participant": [
          {
            "individual": {
              "reference": "Practitioner/38c7117b-1d02-4331-acc6-c532f4d6d28c",
              "display": "Dr. Sarah Johnson"
            }
          }
        ],
        "period": {
          "start": "2010-06-30"
        },
        "serviceProvider": {
          "reference": "Organization/3c3c9351-0047-4ccc-89aa-5cb098eceb3b",
          "display": "Comprehensive Cancer Center"
        },
        "reasonReference": [
          {
            "reference": "Condition/515af0dc-a402-4b5e-a63f-a9414115a240",
            "display": "rheumatoid arthritis"
          }
        ]
      },
      "request": {
        "method": "PUT",
        "url": "Encounter/de809fa2-8e43-4317-9787-534a90c1ffd7"
      }
    },
    {
      "resource": {
        "resourceType": "Procedure",
        "id": "b7c1ad48-e74d-4412-9f3c-6ba9dadc529e",
        "status": "completed",
        "code": {
          "coding": [
            {
              "system": "http://snomed.info/sct",
              "code": "387713003",
              "display": "Blood tests"
            }
          ],
          "text": "Blood tests"
        },
        "subject": {
          "reference": "Patient/b59abd8f-33b7-419d-ad12-9f8e7d7fe9da",
          "display": "Aisha Nguyen"
        },
        "encounter": {
          "reference": "Encounter/de809fa2-8e43-4317-9787-534a90c1ffd7"
        },
        "performedDateTime": "2010-06-30",
        "performer": [
          {
            "actor": {
              "reference": "Practitioner/38c7117b-1d02-4331-acc6-c532f4d6d28c",
              "display": "Dr. Sarah Johnson"
            }
          }
        ],
        "reasonReference": [
          {
            "reference": "Condition/515af0dc-a402-4b5e-a63f-a9414115a240",
            "display": "rheumatoid arthritis"
          }
        ]
      },
      "request": {
        "method": "PUT",
        "url": "Procedure/b7c1ad48-e74d-4412-9f3c-6ba9dadc529e"
      }
    },
    {
      "resource": {
        "resourceType": "Procedure",
        "id": "b0434263-179e-43dd-bbe4-dee35a1abdb6",
        "status": "completed",
        "code": {
          "coding": [
            {
              "system": "http://snomed.info/sct",
              "code": "387713003",
              "display": "Joint mobility assessment"
            }
          ],
          "text": "Joint mobility assessment"
        },
        "subject": {
          "reference": "Patient/b59abd8f-33b7-419d-ad12-9f8e7d7fe9da",
          "display": "Aisha Nguyen"
        },
        "encounter": {
          "reference": "Encounter/de809fa2-8e43-4317-9787-534a90c1ffd7"
        },
        "performedDateTime": "2010-06-30",
        "performer": [
          {
            "actor": {
              "reference": "Practitioner/38c7117b-1d02-4331-acc6-c532f4d6d28c",
              "display": "Dr. Sarah Johnson"
            }
          }
        ],
        "reasonReference": [
          {
            "reference": "Condition/515af0dc-a402-4b5e-a63f-a9414115a240",
            "display": "rheumatoid arthritis"
          }
        ]
      },
      "request": {
        "method": "PUT",
        "url": "Procedure/b0434263-179e-43dd-bbe4-dee35a1abdb6"
      }
    },
    {
      "resource": {
        "resourceType": "MedicationAdministration",
        "id": "55b965e0-bb8a-4a9b-a849-74b84777edfb",
        "status": "completed",
        "medicationCodeableConcept": {
          "coding": [
            {
              "system": "http://www.nlm.nih.gov/research/umls/rxnorm",
              "code": "123456",
              "display": "Rituximab"
            }
          ],
          "text": "Rituximab"
        },
        "subject": {
          "reference": "Patient/b59abd8f-33b7-419d-ad12-9f8e7d7fe9da",
          "display": "Aisha Nguyen"
        },
        "context": {
          "reference": "Encounter/de809fa2-8e43-4317-9787-534a90c1ffd7"
        },
        "effectiveDateTime": "2010-06-30",
        "performer": [
          {
            "actor": {
              "reference": "Practitioner/38c7117b-1d02-4331-acc6-c532f4d6d28c",
              "display": "Dr. Sarah Johnson"
            }
          }
        ],
        "reasonReference": [
          {
            "reference": "Condition/515af0dc-a402-4b5e-a63f-a9414115a240",
            "display": "rheumatoid arthritis"
          }
        ],
        "dosage": {
          "text": "As prescribed per protocol",
          "route": {
            "coding": [
              {
                "system": "http://snomed.info/sct",
                "code": "47625008",
                "display": "Intravenous route"
              }
            ]
          },
          "dose": {
            "value": 1,
            "unit": "dose",
            "system": "http://unitsofmeasure.org",
            "code": "1"
          }
        }
      },
      "request": {
        "method": "PUT",
        "url": "MedicationAdministration/55b965e0-bb8a-4a9b-a849-74b84777edfb"
      }
    },
    {
      "resource": {
        "resourceType": "MedicationAdministration",
        "id": "580916d3-2857-4163-8779-9db0c69a50e5",
        "status": "completed",
        "medicationCodeableConcept": {
          "coding": [
            {
              "system": "http://www.nlm.nih.gov/research/umls/rxnorm",
              "code": "123456",
              "display": "Methylprednisolone"
            }
          ],
          "text": "Methylprednisolone"
        },
        "subject": {
          "reference": "Patient/b59abd8f-33b7-419d-ad12-9f8e7d7fe9da",
          "display": "Aisha Nguyen"
        },
        "context": {
          "reference": "Encounter/de809fa2-8e43-4317-9787-534a90c1ffd7"
        },
        "effectiveDateTime": "2010-06-30",
        "performer": [
          {
            "actor": {
              "reference": "Practitioner/38c7117b-1d02-4331-acc6-c532f4d6d28c",
              "display": "Dr. Sarah Johnson"
            }
          }
        ],
        "reasonReference": [
          {
            "reference": "Condition/515af0dc-a402-4b5e-a63f-a9414115a240",
            "display": "rheumatoid arthritis"
          }
        ],
        "dosage": {
          "text": "As prescribed per protocol",
          "route": {
            "coding": [
              {
                "system": "http://snomed.info/sct",
                "code": "47625008",
                "display": "Intravenous route"
              }
            ]
          },
          "dose": {
            "value": 1,
            "unit": "dose",
            "system": "http://unitsofmeasure.org",
            "code": "1"
          }
        }
      },
      "request": {
        "method": "PUT",
        "url": "MedicationAdministration/580916d3-2857-4163-8779-9db0c69a50e5"
      }
    },
    {
      "resource": {
        "resourceType": "Encounter",
        "id": "c6e3c6c6-8e4a-41ad-8e0b-d6089fc8db69",
        "status": "finished",
        "class": {
          "system": "http://terminology.hl7.org/CodeSystem/v3-ActCode",
          "code": "AMB",
          "display": "Ambulatory"
        },
        "type": [
          {
            "coding": [
              {
                "system": "http://snomed.info/sct",
                "code": "308646001",
                "display": "Treatment response evaluation"
              }
            ],
            "text": "Treatment response evaluation"
          }
        ],
        "subject": {
          "reference": "Patient/b59abd8f-33b7-419d-ad12-9f8e7d7fe9da",
          "display": "Aisha Nguyen"
        },
        "participant": [
          {
            "individual": {
              "reference": "Practitioner/38c7117b-1d02-4331-acc6-c532f4d6d28c",
              "display": "Dr. Sarah Johnson"
            }
          }
        ],
        "period": {
          "start": "2010-07-15"
        },
        "serviceProvider": {
          "reference": "Organization/3c3c9351-0047-4ccc-89aa-5cb098eceb3b",
          "display": "Comprehensive Cancer Center"
        },
        "reasonReference": [
          {
            "reference": "Condition/515af0dc-a402-4b5e-a63f-a9414115a240",
            "display": "rheumatoid arthritis"
          }
        ]
      },
      "request": {
        "method": "PUT",
        "url": "Encounter/c6e3c6c6-8e4a-41ad-8e0b-d6089fc8db69"
      }
    },
    {
      "resource": {
        "resourceType": "Encounter",
        "id": "5e5e5628-64fd-452f-8d7f-0a6ffd4faaed",
        "status": "finished",
        "class": {
          "system": "http://terminology.hl7.org/CodeSystem/v3-ActCode",
          "code": "AMB",
          "display": "Ambulatory"
        },
        "type": [
          {
            "coding": [
              {
                "system": "http://snomed.info/sct",
                "code": "308646001",
                "display": "Long-term care planning"
              }
            ],
            "text": "Long-term care planning"
          }
        ],
        "subject": {
          "reference": "Patient/b59abd8f-33b7-419d-ad12-9f8e7d7fe9da",
          "display": "Aisha Nguyen"
        },
        "participant": [
          {
            "individual": {
              "reference": "Practitioner/38c7117b-1d02-4331-acc6-c532f4d6d28c",
              "display": "Dr. Sarah Johnson"
            }
          }
        ],
        "period": {
          "start": "2010-07-30"
        },
        "serviceProvider": {
          "reference": "Organization/3c3c9351-0047-4ccc-89aa-5cb098eceb3b",
          "display": "Comprehensive Cancer Center"
        },
        "reasonReference": [
          {
            "reference": "Condition/515af0dc-a402-4b5e-a63f-a9414115a240",
            "display": "rheumatoid arthritis"
          }
        ]
      },
      "request": {
        "method": "PUT",
        "url": "Encounter/5e5e5628-64fd-452f-8d7f-0a6ffd4faaed"
      }
    },
    {
      "resource": {
        "resourceType": "Encounter",
        "id": "3ee9ec02-8f3c-4575-966c-1d6ff0f634d7",
        "status": "finished",
        "class": {
          "system": "http://terminology.hl7.org/CodeSystem/v3-ActCode",
          "code": "AMB",
          "display": "Ambulatory"
        },
        "type": [
          {
            "coding": [
              {
                "system": "http://snomed.info/sct",
                "code": "308646001",
                "display": "Disease progression monitoring"
              }
            ],
            "text": "Disease progression monitoring"
          }
        ],
        "subject": {
          "reference": "Patient/b59abd8f-33b7-419d-ad12-9f8e7d7fe9da",
          "display": "Aisha Nguyen"
        },
        "participant": [
          {
            "individual": {
              "reference": "Practitioner/38c7117b-1d02-4331-acc6-c532f4d6d28c",
              "display": "Dr. Sarah Johnson"
            }
          }
        ],
        "period": {
          "start": "2010-08-15"
        },
        "serviceProvider": {
          "reference": "Organization/3c3c9351-0047-4ccc-89aa-5cb098eceb3b",
          "display": "Comprehensive Cancer Center"
        },
        "reasonReference": [
          {
            "reference": "Condition/515af0dc-a402-4b5e-a63f-a9414115a240",
            "display": "rheumatoid arthritis"
          }
        ]
      },
      "request": {
        "method": "PUT",
        "url": "Encounter/3ee9ec02-8f3c-4575-966c-1d6ff0f634d7"
      }
    },
    {
      "resource": {
        "resourceType": "DiagnosticReport",
        "status": "final",
        "category": [
          {
            "coding": [
              {
                "system": "http://terminology.hl7.org/CodeSystem/v2-0074",
                "code": "RAD",
                "display": "Radiology"
              }
            ]
          }
        ],
        "code": {
          "coding": [
            {
              "system": "http://loinc.org",
              "code": "18748-4",
              "display": "Diagnostic imaging study"
            }
          ]
        },
        "subject": {
          "reference": "Patient/b59abd8f-33b7-419d-ad12-9f8e7d7fe9da",
          "display": "Aisha Nguyen"
        },
        "effectiveDateTime": "2010-07-15",
        "performer": [
          {
            "reference": "Practitioner/38c7117b-1d02-4331-acc6-c532f4d6d28c",
            "display": "Dr. Sarah Johnson"
          }
        ],
        "conclusion": "Patient shows improving status for rheumatoid arthritis. Aisha Nguyen, a 45-year-old Asian female with severe rheumatoid arthritis, presented with symptoms in March 2010. Following initial diagnosis in April 2010, she started a comprehensive treatment plan involving medication adjustments and specialist consultations. The treatment has shown significant improvement in managing her condition. Regular follow-ups and monitoring are in place to track progress and adjust the treatment plan as needed."
      },
      "request": {
        "method": "POST",
        "url": "DiagnosticReport"
      }
    },
    {
      "resource": {
        "resourceType": "Observation",
        "status": "final",
        "category": [
          {
            "coding": [
              {
                "system": "http://terminology.hl7.org/CodeSystem/observation-category",
                "code": "clinical",
                "display": "Clinical"
              }
            ]
          }
        ],
        "code": {
          "coding": [
            {
              "system": "http://loinc.org",
              "code": "11323-3",
              "display": "Health status"
            }
          ]
        },
        "subject": {
          "reference": "Patient/b59abd8f-33b7-419d-ad12-9f8e7d7fe9da",
          "display": "Aisha Nguyen"
        },
        "valueString": "improving",
        "effectiveDateTime": "2010-07-15"
      },
      "request": {
        "method": "POST",
        "url": "Observation"
      }
    }
  ]
}